"Time (s)","Linear Acceleration x (m/s^2)","Linear Acceleration y (m/s^2)","Linear Acceleration z (m/s^2)","Absolute acceleration (m/s^2)"
3.354837500E-2,-8.569806437E-1,-2.645023084E-1,1.324518891E0,1.599602322E0
4.350837501E-2,-7.464374238E-1,-4.461156571E-1,1.335381848E0,1.593559753E0
5.346837500E-2,-4.766065478E-1,-7.716283983E-1,9.466963738E-1,1.311029447E0
6.342737500E-2,-2.780087918E-1,-1.039193478E0,3.401606011E-1,1.128238099E0
7.338737500E-2,-7.983656690E-2,-1.147009118E0,-1.002914429E-1,1.154149976E0
8.334737500E-2,1.800278762E-1,-1.059186863E0,-1.905829775E-1,1.091150181E0
9.330737501E-2,2.302656913E-1,-8.163952661E-1,-1.866676819E-1,8.685438057E-1
1.032673750E-1,1.067738123E-1,-6.150452256E-1,-3.333830935E-1,7.076903020E-1
1.132263750E-1,-6.979163513E-2,-5.451265597E-1,-5.155086583E-1,7.535137791E-1
1.231863750E-1,-2.878647123E-1,-5.067314029E-1,-4.826192397E-1,7.566796798E-1
1.331463750E-1,-4.988540339E-1,-4.768228948E-1,-3.596780223E-1,7.781925854E-1
1.431063750E-1,-5.644698800E-1,-5.043697125E-1,-2.321987808E-1,7.917899507E-1
1.530653750E-1,-5.296890333E-1,-5.694018602E-1,-4.632339656E-2,7.790602079E-1
1.630253750E-1,-4.781820801E-1,-5.645165116E-1,9.617091000E-2,7.460468065E-1
1.729853750E-1,-4.295320764E-1,-4.833934110E-1,2.618453336E-1,6.976603566E-1
1.829453750E-1,-4.293516898E-1,-4.043144971E-1,3.196462297E-1,6.708105532E-1
1.929053750E-1,-4.405602175E-1,-4.471354115E-1,2.628452075E-1,6.805225819E-1
2.028643750E-1,-4.167124946E-1,-5.439840138E-1,2.197956669E-1,7.196374404E-1
2.128243750E-1,-3.935926040E-1,-5.456756133E-1,2.776392478E-1,7.278465255E-1
2.227843750E-1,-2.401118177E-1,-4.875893730E-1,4.186682421E-1,6.860613519E-1
2.327443750E-1,-2.231833975E-1,-3.896368164E-1,3.883668011E-1,5.936804274E-1
2.427033750E-1,-1.324107832E-1,-3.322779697E-1,2.422133070E-1,4.319821186E-1
2.526633750E-1,3.110338658E-1,-3.254478371E-1,1.732798970E-1,4.823735928E-1
2.626233750E-1,6.113361906E-1,-3.462118846E-1,2.075796640E-1,7.325871442E-1
2.725833750E-1,6.189040956E-1,-3.403863037E-1,3.548441291E-1,7.904552304E-1
2.825433750E-1,4.250984251E-1,-3.219044244E-1,4.972460496E-1,7.290985965E-1
2.925024583E-1,2.389040753E-2,-3.656246406E-1,4.582860518E-1,5.867522770E-1
3.024624583E-1,-1.531118269E-1,-4.039303350E-1,3.028109264E-1,5.275390074E-1
3.124224583E-1,-1.036613394E-1,-4.058599162E-1,3.887989104E-2,4.206894232E-1
3.223824583E-1,-2.052565652E-1,-4.401567596E-1,-3.448003668E-1,5.956135690E-1
3.323424583E-1,-2.213596509E-1,-5.171955800E-1,-8.443893957E-1,1.014635311E0
3.423014583E-1,-3.259822726E-5,-6.651137638E-1,-1.184178114E0,1.358180447E0
3.522614583E-1,7.706191689E-2,-5.969995487E-1,-1.124623638E0,1.275588228E0
3.622214583E-1,-1.132998897E-1,-5.226463544E-1,-9.401387215E-1,1.081599229E0
3.721814583E-1,-6.723695737E-1,-6.053967351E-1,-9.436096287E-1,1.307281600E0
3.821414583E-1,-1.199924666E0,-7.836157751E-1,-9.694473052E-1,1.730231477E0
3.921004583E-1,-1.482667802E0,-1.030632570E0,-1.079873142E0,2.103956584E0
4.020604583E-1,-1.846345758E0,-1.035589254E0,-8.195013070E-1,2.270026466E0
4.120204583E-1,-2.211739872E0,-6.105767834E-1,-3.015455890E-1,2.314201161E0
4.219804583E-1,-2.544001031E0,-9.467139155E-1,-5.879123908E-1,2.777381764E0
4.319394583E-1,-3.115705817E0,-1.394803008E0,-1.060388466E0,3.574565969E0
4.418994583E-1,-3.608798590E0,-1.940407870E0,-1.196539713E0,4.268526355E0
4.518594583E-1,-3.870016225E0,-2.357857552E0,-1.110661656E0,4.665842596E0
4.618194583E-1,-3.708771652E0,-2.455140603E0,-1.274086071E0,4.626661632E0
4.717794583E-1,-2.831559788E0,-2.319750078E0,-1.420961697E0,3.926589284E0
4.817384583E-1,-2.430469007E0,-2.306276924E0,-9.196225959E-1,3.474449390E0
4.916984583E-1,-2.694302248E0,-2.142907473E0,-3.888749242E-1,3.464468321E0
5.016584583E-1,-2.994327853E0,-1.900597102E0,3.449371916E-1,3.563320123E0
5.116184583E-1,-3.541029945E0,-2.054113410E0,1.264288477E0,4.284472001E0
5.215784583E-1,-3.904439660E0,-2.511636400E0,1.117667205E0,4.775159311E0
5.315374583E-1,-4.005907563E0,-2.463095155E0,1.030804478E0,4.814217591E0
5.414974583E-1,-2.741550381E0,-2.318595253E0,1.085463665E0,3.751028367E0
5.514574583E-1,-1.748574173E0,-2.200128325E0,5.384426075E-1,2.861467583E0
5.614174583E-1,-1.538315315E0,-1.888232580E0,1.848503673E-1,2.442540878E0
5.713764583E-1,-7.536324227E-1,-1.707528473E0,4.657283878E-1,1.923673113E0
5.813364583E-1,-2.041698602E-1,-1.580796506E0,9.925642723E-1,1.877707847E0
5.912964583E-1,2.777247048E0,-1.510470874E0,6.428446430E-1,3.226123473E0
6.012564583E-1,3.083603726E0,-1.153132907E0,-1.401167117E0,3.577931907E0
6.112164583E-1,-2.056623035E0,2.352685690E-1,-2.963135004E-2,2.070248204E0
6.211754583E-1,-1.936086777E0,-8.269377959E-1,2.502411248E0,3.270217146E0
6.311354583E-1,9.471904635E-2,-1.330044510E0,1.941758577E0,2.355507687E0
6.410954583E-1,-2.096460700E-1,-1.057907492E0,2.336673675E0,2.573550776E0
6.510554583E-1,-4.900282466E-1,-1.570800691E0,2.491430762E0,2.985761165E0
6.610154583E-1,-2.508546147E-1,-1.330873645E0,2.088517842E0,2.489188517E0
6.709744583E-1,-1.456748995E-1,-9.388499951E-1,2.369195888E0,2.552596648E0
6.809344583E-1,4.063814878E-4,-1.041082714E0,3.275687392E0,3.437147258E0
6.908944583E-1,5.253945458E-1,-7.224767035E-1,3.808556433E0,3.911919493E0
7.008544583E-1,5.649003813E-1,-7.057565904E-1,2.843799180E0,2.984023891E0
7.108134583E-1,3.628814194E-1,-1.172548002E-1,1.039945430E0,1.107663356E0
7.207734583E-1,2.044706994E-1,7.198483801E-1,-8.975639749E-1,1.168593619E0
7.307334583E-1,6.501893306E-1,6.553015512E-1,-1.849207385E0,2.066817419E0
7.406934583E-1,1.053760939E0,2.530376726E-1,-1.421420995E0,1.787422117E0
7.506534583E-1,1.175508740E0,5.304079485E-1,-3.540173328E-1,1.337341266E0
7.606124583E-1,1.618392348E0,1.439834754E0,6.220197845E-1,2.253713940E0
7.705724583E-1,2.345437481E0,2.093057621E0,1.206253107E0,3.367048224E0
7.805324583E-1,3.004530367E0,2.182223566E0,1.045555249E0,3.857782809E0
7.904924583E-1,3.041330988E0,1.265525163E0,3.612357205E-1,3.313870753E0
8.004524583E-1,1.674136194E0,6.862181193E-1,-9.678135931E-2,1.811903401E0
8.104114583E-1,6.091059163E-1,8.406296360E-1,3.513708830E-1,1.095960629E0
8.203714583E-1,9.454047239E-1,1.948935449E-1,9.406053293E-1,1.347780387E0
8.303314583E-1,1.229123906E0,-7.748028517E-1,1.533576731E0,2.112563047E0
8.402914583E-1,8.127325702E-1,-1.161508459E0,2.082799850E0,2.519462511E0
8.502514583E-1,-5.917674601E-2,-7.625845098E-1,1.940611353E0,2.085907343E0
8.602104583E-1,-8.928976044E-1,1.262472332E-2,1.258247718E0,1.542923471E0
8.701704583E-1,-1.594504133E0,4.065042794E-1,3.626163066E0,3.982053207E0
8.801304583E-1,-1.203147359E0,1.612205994E-1,4.326846612E0,4.493902230E0
8.900904583E-1,-1.091478111E0,-1.212759304E-1,1.969353926E0,2.254858578E0
9.000494583E-1,-3.571336064E-1,1.583496165E-1,1.500740522E0,1.550755019E0
9.100094583E-1,-7.569776148E-2,4.055476749E-1,5.089048129E-1,6.551207342E-1
9.199694583E-1,-6.320430815E-2,5.937677926E-1,-3.484355807E-3,5.971324115E-1
9.299294583E-1,1.119151229E-1,8.248877621E-1,-7.586762309E-2,8.358951555E-1
9.398894583E-1,1.006591743E0,1.091382217E0,-1.987632322E-1,1.497948231E0
9.498484583E-1,1.976267674E0,1.721673473E0,-3.930206001E-1,2.650331801E0
9.598084583E-1,2.144694382E0,3.127881474E0,-4.909281331E-1,3.824181866E0
9.697684583E-1,2.048541891E0,3.186260660E0,5.150861970E-1,3.822838561E0
9.797284583E-1,8.643696240E-1,1.659583644E0,4.837942377E-1,1.932720772E0
9.896884583E-1,1.012386918E-1,7.719312841E-1,-4.286301434E-3,7.785535000E-1
9.996474583E-1,-5.211801651E-1,-3.799988508E-2,3.341645738E-1,6.202730997E-1
1.009607458E0,-1.938951328E-1,-6.377376848E-1,7.920658788E-1,1.035216419E0
1.019567458E0,1.232185509E0,-1.531892733E0,1.602263681E0,2.536183230E0
1.029527458E0,3.904709217E-1,-3.849343686E0,1.356406682E0,4.099969932E0
1.039487458E0,-3.218526766E-1,-4.446716287E0,-1.556334971E0,4.722187356E0
1.049446458E0,3.987128645E-1,-8.997613585E-1,-1.992113628E0,2.221949405E0
1.059406458E0,1.014131142E0,1.511292992E0,-6.041313976E-1,1.917666089E0
1.069366458E0,1.491986656E0,1.637295812E0,-8.598181513E-1,2.376141622E0
1.079326458E0,1.100072349E0,1.191987070E0,-1.294545186E0,2.075292651E0
1.089285458E0,7.787035292E-1,1.167478466E0,-7.743263036E-1,1.602799544E0
1.099245458E0,-3.015964597E-1,1.034933782E0,-2.668751085E-1,1.110527208E0
1.109205458E0,-1.159726228E0,9.407889318E-1,3.850490910E-1,1.542177532E0
1.119165458E0,8.039570689E-2,1.025119230E0,1.655526845E0,1.948871992E0
1.129125458E0,2.634655970E-1,1.362406510E0,1.387513869E0,1.962335434E0
1.139084458E0,-5.942045796E-1,1.433137354E0,5.845692453E-1,1.657915245E0
1.149044458E0,-1.087206720E0,1.356327159E0,-5.634517336E-1,1.827325825E0
1.159004458E0,-3.665455770E-1,1.341386354E-1,5.152461183E-1,6.463956961E-1
1.168964458E0,1.599392406E0,-5.496873879E-1,5.284552708E-1,1.771857010E0
1.178924458E0,1.712479895E0,-6.370254940E-1,-1.595987572E0,2.426018385E0
1.188883458E0,1.901284150E0,-4.590450203E-1,-2.072325440E0,2.849585317E0
1.198843458E0,1.927880210E0,-3.944824040E-2,-2.219222408E0,2.939936456E0
1.208803458E0,1.485537761E-1,3.773301816E-1,-3.276797486E0,3.301794671E0
1.218763458E0,-2.565954110E0,1.247970067E0,-2.469894589E0,3.773848045E0
1.228722458E0,-2.422998458E0,9.425197077E-1,1.326411635E-1,2.603240021E0
1.238682458E0,-1.224953088E0,-3.242783940E-1,6.307064080E-1,1.415435310E0
1.248642458E0,-6.077502394E-1,-1.149990613E0,2.725641569E-1,1.328958233E0
1.258602458E0,-2.433026433E-1,-1.304872246E0,2.891154318E-1,1.358482789E0
1.268562458E0,3.042306304E-3,-9.641795486E-1,6.275721543E-1,1.150433947E0
1.278521458E0,3.387245250E-1,-8.403817141E-1,9.392519912E-1,1.305055567E0
1.288481083E0,4.744354767E-1,-1.199791349E0,6.152930014E-1,1.429396299E0
1.298441083E0,5.307804161E-1,-1.444407862E0,4.858492416E-1,1.613719742E0
1.308401083E0,-1.175699651E-2,-9.439335644E-1,1.115431815E0,1.461279212E0
1.318361083E0,-4.532703102E-2,-6.205959874E-1,1.944223470E0,2.041371799E0
1.328320083E0,3.525748247E-1,-8.822302365E-1,1.963172542E0,2.180982721E0
1.338280083E0,4.305082691E-1,-8.328177559E-1,1.702427801E0,1.943497672E0
1.348240083E0,2.505970448E-1,-6.858684558E-1,1.637776014E0,1.793188415E0
1.358200083E0,3.446161795E-1,-6.727011108E-1,1.660480607E0,1.824413040E0
1.368160083E0,7.379332334E-1,-7.556157982E-1,1.790081656E0,2.078435235E0
1.378119083E0,9.647069675E-1,-7.952207440E-1,1.675141915E0,2.090247832E0
1.388079083E0,8.055188602E-1,-6.108568650E-1,1.270803444E0,1.623868264E0
1.398039083E0,7.425203741E-1,-3.221587783E-1,9.065279026E-1,1.215284174E0
1.407999083E0,7.558473480E-1,2.265971482E-2,4.523827028E-1,8.811746626E-1
1.417958083E0,3.875914603E-1,2.877648711E-2,3.623876220E-1,5.313944062E-1
1.427918083E0,-1.183581698E-1,-1.577280575E-1,6.828670800E-1,7.107701776E-1
1.437878083E0,-2.772527468E-1,3.689540452E-1,1.166273867E0,1.254269072E0
1.447838083E0,-1.970412272E-1,6.974582219E-1,1.451244865E0,1.622154393E0
1.457798083E0,-2.027867013E-1,5.556392688E-1,1.173126803E0,1.313805138E0
1.467757083E0,2.169007105E-1,4.177858973E-1,6.988538792E-1,8.426076896E-1
1.477717083E0,7.451095212E-1,3.708362639E-2,3.066864610E-1,8.066101780E-1
1.487677083E0,1.310320097E0,-4.402859831E-1,-1.124653459E-1,1.386881018E0
1.497637083E0,1.689876314E0,-7.298816174E-1,-3.602680794E-1,1.875687133E0
1.507597083E0,1.743997557E0,-6.442017817E-1,-7.817551911E-2,1.860815635E0
1.517556083E0,1.523115478E0,-4.822777623E-1,3.546961214E-1,1.636545733E0
1.527516083E0,1.299146653E0,-3.680874878E-1,4.296176650E-1,1.416983332E0
1.537476083E0,4.493614465E-1,-4.376494735E-1,1.621035290E-1,6.478736956E-1
1.547436083E0,2.197898197E-1,-4.778829950E-1,3.146906414E-1,6.129518101E-1
1.557396083E0,2.488557440E-1,-3.827066964E-1,5.675212495E-1,7.283364370E-1
1.567355083E0,-3.017174971E-1,-1.490022576E-1,4.995130152E-1,6.022859563E-1
1.577315083E0,-1.003526047E0,-1.308951849E-1,3.175388932E-2,1.012524759E0
1.587275083E0,-1.582485182E0,-1.746463913E-1,-2.319520283E-1,1.608901009E0
1.597235083E0,-1.132513286E0,-2.247377336E-1,-3.878692031E-1,1.218004889E0
1.607195083E0,-4.556097811E-1,-3.625624537E-1,-5.316744554E-1,7.884855941E-1
1.617154083E0,-2.993218929E-1,-1.329405409E-1,-9.823257977E-1,1.035485758E0
1.627114083E0,-3.366382384E-1,3.762613106E-1,-9.395095611E-1,1.066572123E0
1.637074083E0,-6.460495019E-1,3.969013971E-1,-4.830742992E-2,7.597659414E-1
1.647034083E0,-9.754675984E-2,3.717870212E-1,6.776161341E-1,7.790408107E-1
1.656993083E0,1.366084993E-2,7.153425157E-1,7.609829575E-1,1.044507824E0
1.666953083E0,2.109505838E-1,1.125715313E0,7.294424915E-1,1.357873876E0
1.676913083E0,2.703226268E-1,1.205842048E0,5.339870292E-1,1.346206342E0
1.686873083E0,1.932826370E-1,1.041618903E0,4.572195927E-1,1.153853489E0
1.696833083E0,1.692804015E-1,8.464710045E-1,5.344847003E-1,1.015304344E0
1.706792083E0,-2.775299048E-1,7.430758595E-1,5.802760003E-1,9.828045674E-1
1.716752083E0,-9.963503444E-1,8.656545496E-1,4.893604946E-1,1.407673791E0
1.726712083E0,-8.925944263E-1,1.282736442E0,6.319758385E-1,1.685684149E0
1.736672083E0,-2.059710950E-1,1.246643334E0,7.974262407E-1,1.494132626E0
1.746632083E0,7.565127611E-3,1.100944753E0,5.171802311E-1,1.216393017E0
1.756591083E0,1.220185268E-1,1.175914829E0,6.189096504E-1,1.334433723E0
1.766551083E0,3.467012966E-1,1.249694996E0,1.143643461E0,1.729121088E0
1.776511083E0,7.736164516E-1,1.116217096E0,1.346430747E0,1.912406540E0
1.786471083E0,8.258648318E-1,8.835622323E-1,1.256328077E0,1.743873613E0
1.796431083E0,4.929506850E-1,1.005642740E0,9.428635240E-1,1.464004550E0
1.806390083E0,1.098048627E-1,1.454446946E0,5.554802245E-1,1.560779071E0
1.816350083E0,-2.236595070E-1,1.615993820E0,2.655898905E-1,1.652875553E0
1.826310083E0,-2.233805948E-1,1.660588195E0,1.277612966E-2,1.675594006E0
1.836270083E0,1.600265980E-1,1.655135667E0,-3.802327394E-2,1.663288417E0
1.846230083E0,3.100398391E-1,1.394060996E0,-6.790239975E-2,1.429734765E0
1.856189083E0,1.504552907E-1,9.401433992E-1,-5.988477074E-2,9.539877313E-1
1.866149083E0,1.645874262E-2,4.644624656E-1,1.211942156E-1,4.802960650E-1
1.876109083E0,-2.803447545E-1,8.556113720E-2,-1.560263716E-2,2.935256920E-1
1.886069083E0,-3.676103550E-1,-1.982919466E-1,-1.472841994E-1,4.428879143E-1
1.896028083E0,-5.207676440E-1,-7.221194386E-2,-2.299571045E-1,5.738412444E-1
1.905988083E0,-7.993523866E-1,-1.903268695E-3,-2.312328207E-1,8.321276812E-1
1.915948083E0,-1.402482156E0,-2.381682032E-1,-2.233051658E-1,1.439981072E0
1.925908083E0,-3.384695864E-1,1.426925272E-1,-6.027529165E-2,3.722310156E-1
1.935868083E0,-4.795471126E-1,3.831855834E-2,-2.215029077E-1,5.296199423E-1
1.945827083E0,-7.755887175E-1,-8.709778547E-2,-2.404350226E-1,8.166595882E-1
1.955787083E0,-9.004910910E-1,-9.498567939E-2,-2.487332448E-1,9.390285999E-1
1.965747083E0,-8.020064378E-1,-9.046402752E-2,-4.147219563E-1,9.074097021E-1
1.975707083E0,-6.079086989E-1,-9.298300803E-2,-5.191295466E-1,8.047945776E-1
1.985667083E0,-6.464208001E-1,9.985582530E-2,-6.490944394E-1,9.214958643E-1
1.995626083E0,-6.624100113E-1,3.153865331E-1,-5.861553025E-1,9.390600231E-1
2.005586083E0,-3.802327394E-1,4.906772876E-1,-3.538313913E-1,7.145192721E-1
2.015546083E0,1.317406923E-1,7.156062251E-1,-1.971871153E-1,7.538770708E-1
2.025506083E0,2.541960061E-2,7.463432837E-1,-1.287077415E-1,7.577863392E-1
2.035466083E0,-1.119390965E-1,5.108384871E-1,-1.226076338E-1,5.371396030E-1
2.045425083E0,1.538174397E-1,3.474988568E-1,1.036154388E-1,3.938926495E-1
2.055385083E0,8.254689753E-2,5.023459911E-1,2.289383733E-1,5.581919597E-1
2.065345083E0,3.013888836E-1,8.031706184E-1,1.941370614E-1,8.795496007E-1
2.075305083E0,3.102813292E-1,9.828760207E-1,2.317159469E-1,1.056414717E0
2.085265083E0,-1.788043463E-1,1.162601303E0,4.709625229E-2,1.177213168E0
2.095224083E0,-1.635442829E-1,1.174880456E0,8.140025854E-2,1.188998243E0
2.105184083E0,1.202696246E-1,9.684585410E-1,2.683779891E-1,1.012128190E0
2.115144083E0,1.095464158E-1,7.728305858E-1,6.049720810E-1,9.875518976E-1
2.125104083E0,6.825571775E-2,7.404826194E-1,7.398923430E-1,1.049006212E0
2.135063083E0,-7.897834182E-2,7.741976649E-1,2.794056916E-1,8.268537617E-1
2.145023083E0,-1.646903372E-1,6.961917150E-1,-2.429237437E-1,7.555248219E-1
2.154983083E0,2.850985408E-1,4.683216280E-1,2.013342530E-2,5.486453135E-1
2.164943083E0,5.188684684E-1,3.424913013E-1,4.022744036E-1,7.405062287E-1
2.174903083E0,6.501285195E-1,3.249531627E-1,4.207728012E-1,8.398281968E-1
2.184862083E0,8.570813620E-1,1.086950612E-1,4.608152649E-1,9.791597346E-1
2.194822083E0,8.890580302E-1,1.281633657E-1,3.951735449E-1,9.813318297E-1
2.204782083E0,8.751983750E-1,6.888897121E-2,3.822064671E-1,9.574965637E-1
2.214742083E0,8.150328648E-1,-5.732844114E-2,4.001787615E-1,9.097846789E-1
2.224702083E0,2.546515042E-1,1.379375714E-1,1.018985501E-1,3.070138054E-1
2.234661083E0,1.206251353E-1,3.621157265E-1,-2.301997639E-1,4.457243026E-1
2.244621083E0,3.499967873E-2,5.069933581E-1,-8.500214338E-2,5.152597472E-1
2.254581083E0,-2.460274458E-2,4.875385022E-1,1.320301294E-2,4.883373892E-1
2.264541083E0,-2.216679454E-1,8.286907911E-2,1.031849375E-1,2.581687309E-1
2.274501083E0,-2.896371496E-1,-2.594415432E-1,3.142505653E-1,4.999530084E-1
2.284460083E0,8.329709530E-2,-3.080868691E-1,3.701476081E-1,4.887383521E-1
2.294419958E0,3.242690384E-1,-2.432389086E-1,3.521044162E-1,5.369293211E-1
2.304379958E0,1.681109583E-1,-9.124170721E-2,1.762862429E-1,2.601214772E-1
2.314339958E0,1.559686303E-1,6.883459210E-2,3.414329553E-1,3.816292411E-1
2.324299958E0,1.825395477E-1,1.399045748E-1,5.142836666E-1,5.633663695E-1
2.334258958E0,8.933785379E-2,2.810417426E-1,6.518771294E-1,7.154785147E-1
2.344218958E0,-1.024139822E-2,3.523543847E-1,6.289282697E-1,7.209779935E-1
2.354178958E0,-2.270970851E-1,2.454509103E-1,4.058414975E-1,5.258579243E-1
2.364138958E0,-5.600778902E-1,1.264904773E-1,3.876826769E-1,6.928094557E-1
2.374097958E0,-3.602218133E-1,8.379937112E-2,5.129227272E-1,6.323541835E-1
2.384057958E0,-2.035866004E-1,-3.354313731E-2,3.974633145E-1,4.478277932E-1
2.394017958E0,-1.716111016E-1,-2.676106882E-1,4.371637161E-1,5.405348882E-1
2.403977958E0,-1.902438390E-1,-3.736861968E-1,4.805876246E-1,6.378076175E-1
2.413937958E0,-2.931700373E-1,-3.849438411E-1,4.879314351E-1,6.871735712E-1
2.423896958E0,-3.031670219E-1,-2.414344579E-1,3.015394494E-1,4.910467189E-1
2.433856958E0,-3.630811018E-1,1.305624783E-1,7.006396919E-2,3.921522753E-1
2.443816958E0,-5.868721712E-1,3.722980678E-1,5.593241841E-2,6.972468946E-1
2.453776958E0,-9.392446822E-1,3.605925268E-1,1.108857206E-1,1.012177448E0
2.463736958E0,-7.477144557E-1,1.971178257E-1,2.350851126E-1,8.082062575E-1
2.473695958E0,-7.367538500E-1,4.284547269E-2,2.122799483E-1,7.679223570E-1
2.483655958E0,-4.379207844E-1,1.573982745E-1,2.966130240E-1,5.518406620E-1
2.493615958E0,-2.029439914E-1,4.197324353E-1,4.486920865E-1,6.470596336E-1
2.503575958E0,-1.442923254E-1,4.479627925E-1,4.240912423E-1,6.335174192E-1
2.513535958E0,-2.384354210E-1,2.957369649E-1,5.600486541E-1,6.767320721E-1
2.523494958E0,-5.485349017E-1,8.257087111E-2,5.332054026E-1,7.694260774E-1
2.533454958E0,-4.394901770E-1,-2.102278680E-1,4.661460252E-1,6.742695967E-1
2.543414958E0,1.961740851E-1,1.876710641E-1,3.140353878E-1,4.151179649E-1
2.553374958E0,-5.497142851E-2,5.424122822E-1,4.151302381E-1,6.852489011E-1
2.563334958E0,-2.750927854E-1,5.490553039E-1,3.329382665E-1,6.985597016E-1
2.573293958E0,-1.272769278E-1,3.740545714E-1,1.832321504E-1,4.355344529E-1
2.583253958E0,-4.784829193E-1,2.694601625E-1,-6.331365108E-2,5.527778050E-1
2.593213958E0,-6.437702572E-1,1.596406817E-2,-2.572213554E-1,6.934391259E-1
2.603173958E0,-5.298405932E0,3.578098369E-1,1.271313468E0,5.460528475E0
2.613132958E0,-1.056800029E1,4.401099819E-1,-1.791416283E0,1.072779098E1
2.623092958E0,-3.641229002E0,1.224693471E-1,-1.964807131E0,4.139325361E0
2.633052958E0,6.188558561E-1,-7.423233229E-1,-1.586723682E0,1.857880117E0
2.643012958E0,1.215271853E0,-1.248298096E0,-3.909411840E-1,1.785488399E0
2.652972958E0,1.470549594E0,-1.637588757E0,8.007210736E-1,2.342086096E0
2.662931958E0,7.134152734E-1,-9.600215936E-1,1.227011454E0,1.713522664E0
2.672891958E0,4.496567309E-2,2.974338269E-1,1.224251568E0,1.260666766E0
2.682851958E0,2.002437472E-2,1.194842851E0,7.869489804E-1,1.430852582E0
2.692811958E0,3.002638793E-1,1.356207291E0,2.392401440E-1,1.409500784E0
2.702771958E0,9.705413193E-1,1.153366796E0,1.384408705E-1,1.513727615E0
2.712730958E0,2.048311803E0,8.471276468E-1,6.193603246E-1,2.301480763E0
2.722690958E0,2.376993150E0,6.252755141E-1,6.359102838E-1,2.538788647E0
2.732650958E0,1.885351657E0,4.246294785E-1,1.780420156E-1,1.940762742E0
2.742610958E0,1.968168111E0,4.493333799E-1,-2.288132429E-2,2.018937779E0
2.752570958E0,2.334427174E0,6.974389261E-1,-1.297754431E-1,2.439838715E0
2.762529958E0,1.914493010E0,6.044500709E-2,-1.849649727E-1,1.924356808E0
2.772489958E0,5.049152577E-1,-4.945955068E-1,-3.835353930E-1,8.041539221E-1
2.782449958E0,-7.688112098E-1,-2.521524042E-1,-9.812410661E-1,1.271804050E0
2.792409958E0,-1.094101757E0,-7.293699861E-2,-1.420050116E0,1.794135109E0
2.802369958E0,-9.432003236E-1,1.593068057E-1,-1.379360511E0,1.678583012E0
2.812328958E0,-2.246642341E0,4.341516691E-1,-9.234506949E-1,2.467519132E0
2.822288958E0,-4.792557458E0,1.291811906E0,8.154176847E-1,5.030138268E0
2.832248958E0,-5.013125542E0,-2.168556869E-2,2.204173721E0,5.476338171E0
2.842208958E0,-2.285933876E0,-2.472100452E0,6.952435890E-1,3.438042754E0
2.852167958E0,-6.414980292E-3,-1.800437806E0,-1.987538767E-1,1.811386361E0
2.862127958E0,6.256666929E-1,2.393031478E-2,4.051126420E-1,7.457531249E-1
2.872087958E0,8.943649632E-1,-2.642099476E-1,2.390998109E-1,9.627379204E-1
2.882047958E0,8.291503823E-1,4.930728918E-1,-1.386677425E-1,9.745973404E-1
2.892007958E0,7.247623801E-1,9.031574214E-1,-1.673613453E-1,1.170035750E0
2.901966958E0,1.026964611E0,1.838404362E0,-6.662620108E-1,2.208685577E0
2.911926958E0,8.472709036E-1,2.531422793E0,-8.092033370E-1,2.789404844E0
2.921886958E0,9.356708640E-1,2.277027982E0,-6.761251672E-1,2.552935886E0
2.931846958E0,1.487172058E0,1.908185034E0,-1.218115354E-1,2.422331295E0
2.941806958E0,1.920536107E0,1.737551002E0,3.714349457E-1,2.616391856E0
2.951765958E0,1.668086080E0,1.292902996E0,1.296480907E0,2.476887577E0
2.961725958E0,5.785340416E-1,7.012051177E-1,1.606247681E0,1.845649444E0
2.971685958E0,2.884940189E-1,-1.894568038E-1,-3.646436971E-2,3.470624291E-1
2.981645958E0,8.589086169E-1,-9.216966033E-2,-1.600534952E0,1.818771946E0
2.991605958E0,-1.306852698E-2,1.351801414E0,4.109317911E-1,1.412941183E0
3.001564958E0,-2.301106231E0,5.051310199E-1,4.471964564E0,5.054573602E0
3.011524958E0,-2.989614120E0,-1.124309058E0,3.992214553E0,5.112694053E0
3.021484958E0,-5.158477968E-1,-9.794653398E-1,3.520110362E0,3.690071579E0
3.031444958E0,9.337050301E-1,-3.624940413E-1,3.842111850E0,3.970520177E0
3.041404958E0,-4.951340353E-1,-5.424777710E-1,3.468930852E0,3.545831511E0
3.051363958E0,-3.171156133E0,-7.107998139E-1,1.679767063E0,3.658289898E0
3.061323958E0,-4.038190625E0,-1.237481917E0,-1.679761215E0,4.545320974E0
3.071283958E0,-2.804798836E0,-1.224129215E0,-3.949076135E0,4.996057562E0
3.081243958E0,-1.468105457E0,-7.243565834E-1,-4.162028221E0,4.472416014E0
3.091203958E0,-3.605188519E-1,-7.965229189E-1,-2.650707747E0,2.791177917E0
3.101162958E0,1.302970147E-1,-9.179485381E-1,-6.436742898E-1,1.128682162E0
3.111122958E0,1.111145806E0,-9.080667436E-1,4.721685477E-1,1.510686384E0
3.121082958E0,1.261416909E0,-8.349122286E-1,-8.831163090E-2,1.515272250E0
3.131042958E0,4.235512519E-1,-1.154702300E0,-1.187155516E0,1.709406705E0
3.141002958E0,-5.296045411E-1,-1.390076703E0,-1.625971509E0,2.203764407E0
3.150961958E0,-1.187076579E0,-1.467263458E0,-1.127043800E0,2.198235790E0
3.160921958E0,-1.090255458E0,-1.607047580E0,-3.466427513E-1,1.972668266E0
3.170881958E0,-6.466903567E-2,-1.611190333E0,1.036876227E0,1.917088595E0
3.180841958E0,4.167427540E-1,-1.414347911E0,2.071129392E0,2.542367302E0
3.190800958E0,4.346656394E-1,-1.457295710E0,2.292085147E0,2.750690700E0
3.200760958E0,9.138572413E-1,-1.117978277E0,2.443255552E0,2.838046543E0
3.210720958E0,1.175169894E0,-4.634187376E-1,2.312529352E0,2.635066073E0
3.220680958E0,1.086223803E0,-6.438141114E-1,1.334174398E0,1.836954024E0
3.230640958E0,9.683293176E-1,-7.017272741E-1,-3.643833498E-1,1.250143216E0
3.240599958E0,6.695032686E-1,-4.917695475E-1,-1.258201525E0,1.507694595E0
3.250559958E0,2.913977462E-1,-1.811467409E-1,-1.555054139E0,1.592457272E0
3.260519958E0,-8.275804049E-1,5.349781322E-1,-4.803160214E-1,1.096263841E0
3.270479958E0,-1.137020904E0,1.739892812E0,-7.249962687E-2,2.079735495E0
3.280439958E0,-2.284308350E-1,2.236376969E0,1.275043845E0,2.584434058E0
3.290399375E0,9.430424488E-1,2.733761598E0,1.046064541E0,3.075228863E0
3.300359375E0,2.844066398E0,8.173466080E-1,7.791769344E-2,2.960209506E0
3.310319375E0,6.623486155E-1,4.524908763E-1,5.619665774E-1,9.794182537E-1
3.320279375E0,4.519681352E-1,3.103984489E0,1.736945815E0,3.585523067E0
3.330239375E0,2.531780058E0,9.212153774E-1,8.166981518E-1,2.815234254E0
3.340198375E0,2.003423313E0,9.958550853E-1,2.964702423E-1,2.256840031E0
3.350158375E0,-1.547377914E-1,1.425350032E0,6.171057844E-1,1.560892708E0
3.360118375E0,-1.657630674E0,1.966254902E-1,-4.433078241E-1,1.727114027E0
3.370078375E0,-1.489889552E0,-1.576760173E-1,-4.497619077E-1,1.564262886E0
3.380038375E0,-1.640326131E0,-1.900888878E-1,6.426604557E-1,1.771952613E0
3.389997375E0,-1.379287713E0,-1.157980834E0,6.287616241E-1,1.907536471E0
3.399957375E0,-4.686578429E-1,-1.529684240E0,1.173097567E0,1.983867926E0
3.409917375E0,7.607712883E-1,-1.221751152E0,1.255945669E0,1.910195895E0
3.419877375E0,1.083824691E0,-1.252684093E0,1.246895349E-1,1.661156487E0
3.429836375E0,4.690273869E-1,-1.271382903E0,-8.226611423E-1,1.585298878E0
3.439796375E0,2.351317441E-1,-1.565918266E0,-1.111076297E0,1.934393313E0
3.449756375E0,5.170306885E-1,-1.591270623E0,-6.694875542E-1,1.802131104E0
3.459716375E0,1.264787829E0,-1.067079434E0,4.108253717E-1,1.705029108E0
3.469676375E0,1.711657777E0,-7.739971054E-1,1.074859740E0,2.164293724E0
3.479635375E0,8.848673308E-1,-4.636695832E-1,1.162601888E0,1.532847946E0
3.489595375E0,-2.907723865E-1,-1.124419570E-2,1.305485619E0,1.337522977E0
3.499555375E0,-9.386906585E-1,-5.856103420E-1,1.355507380E0,1.749708513E0
3.509515375E0,-1.369404019E0,-7.428484029E-1,9.850429988E-1,1.843203957E0
3.519475375E0,-2.453213360E0,-4.695758557E-1,-1.324284710E-2,2.497785549E0
3.529434375E0,-2.814993457E0,-4.059172189E-1,-8.836114220E-1,2.978208538E0
3.539394375E0,-1.892441406E0,-1.335457277E-1,-1.996458694E-2,1.897252624E0
3.549354375E0,-9.022904254E-1,6.230617583E-2,-2.684245475E-1,9.434308714E-1
3.559314375E0,-6.942033693E-1,-3.021671480E-1,-7.495276773E-1,1.065370847E0
3.569274375E0,-9.445990507E-1,-1.188954704E0,-5.826808139E-1,1.626467825E0
3.579233375E0,-1.539250869E0,-1.206535528E0,-6.019818150E-2,1.956692372E0
3.589193375E0,-1.729373671E0,-9.912211668E-1,1.234510946E-1,1.997121145E0
3.599153375E0,-2.033415436E0,-1.923066198E0,1.652376366E-1,2.803616488E0
3.609113375E0,-2.781427808E0,-2.181347069E0,7.569186310E-1,3.614905462E0
3.619073375E0,-3.890758345E0,-1.533329394E0,1.216954097E0,4.355465165E0
3.629032375E0,-3.904557189E0,-1.370041219E0,6.264051231E-1,4.185088191E0
3.638992375E0,-2.118585687E0,-1.177933288E0,-8.115667085E-1,2.556281022E0
3.648952375E0,-5.719317312E-1,-7.460409826E-1,-1.473125292E0,1.747507133E0
3.658912375E0,1.377819624E-1,-1.408670264E-1,1.509003369E-1,2.481900481E-1
3.668872375E0,5.870648369E-1,1.089883575E0,8.461727965E-1,1.499499827E0
3.678831375E0,2.927229007E0,2.158562223E0,5.652855666E-1,3.680707582E0
3.688791375E0,3.868267322E0,4.235473927E0,-7.322550023E-1,5.782640301E0
3.698751375E0,2.464481822E0,3.385073594E0,-1.156358231E0,4.343910479E0
3.708711375E0,-1.508172333E-2,2.461750880E0,-9.104500687E-1,2.624759833E0
3.718671375E0,-3.061283442E-1,2.606638452E0,-1.144578431E0,2.863274064E0
3.728630375E0,1.110909871E0,2.975289611E0,-1.411534231E0,3.475470888E0
3.738590375E0,9.156350141E-1,1.296531778E0,-6.470434555E-1,1.714073325E0
3.748550375E0,-8.703532259E-1,-7.022716498E-1,-1.728903993E-1,1.131632139E0
3.758510375E0,-4.140195887E0,-2.469826469E0,1.164738388E0,4.959625014E0
3.768470375E0,-2.977043484E0,-1.503565312E0,-6.875846136E-1,3.405329522E0
3.778429375E0,1.183862510E0,6.391527110E-1,1.951666099E0,2.370452951E0
3.788389375E0,-1.306040228E0,-1.236836969E0,1.726394953E0,2.493179957E0
3.798349375E0,-1.464580902E0,-3.166291249E0,1.917804873E0,3.981001510E0
3.808309375E0,-1.064013739E0,-1.996824145E0,1.294672948E0,2.606839072E0
3.818269375E0,9.740761073E-1,4.589327538E-1,2.090716395E0,2.351709714E0
3.828228375E0,2.864705899E0,-2.333541906E0,6.330990887E-1,3.748702732E0
3.838188375E0,9.805844969E-1,-3.067092066E0,9.306416738E-1,3.351819450E0
3.848148375E0,-1.754504858E0,-1.398071601E0,1.044092933E0,2.474473995E0
3.858108375E0,3.070299849E-2,2.193101726E0,-2.199524893E0,3.106211134E0
3.868067375E0,1.925982789E0,1.515022931E0,-9.661705256E-1,2.634044356E0
3.878027375E0,3.300074959E0,-6.486225107E0,2.232083359E0,7.612082960E0
3.887987375E0,-1.448227848E0,-3.318465621E0,2.007142142E0,4.139830620E0
3.897947375E0,-2.041519677E0,8.530197691E0,-6.090932279E0,1.067855474E1
3.907907375E0,3.796480179E0,-1.741894898E0,1.284701107E0,4.370116305E0
3.917867375E0,-8.585153186E-1,-1.967605609E0,1.084166607E-1,2.149482393E0
3.927826375E0,-4.349429728E0,4.959807122E0,-6.304752091E0,9.125082168E0
3.937786375E0,-1.161947000E-1,1.471772831E0,-4.245710063E-1,1.536189121E0
3.947746375E0,1.506985348E0,-3.067734091E0,4.138098491E0,5.367108757E0
3.957706375E0,-7.672614053E-1,-1.555352932E0,-8.346079906E-2,1.736311755E0
3.967665375E0,-1.168584175E0,-4.341742394E0,-3.699433941E-1,4.511449224E0
3.977625375E0,-2.569099035E0,-5.365068868E0,7.019763654E-1,5.989741616E0
3.987585375E0,-3.416108276E0,-2.710829988E0,5.013005821E-1,4.389726329E0
3.997545375E0,-1.935412301E0,-1.251015882E0,1.544545523E0,2.774253482E0
4.007505375E0,-5.516178462E-1,3.342356760E0,1.318448896E0,3.635098135E0
4.017465375E0,-5.037858680E-1,2.777642612E0,9.411619842E-1,2.975715807E0
4.027424375E0,-2.878239645E-1,1.356751667E0,1.243550011E-1,1.392509206E0
4.037384375E0,-2.804845029E-1,9.758979535E-1,-2.752167463E-2,1.015778428E0
4.047344375E0,1.053519449E0,2.970444024E0,1.336252499E-1,3.154567583E0
4.057304375E0,2.215203032E0,2.400893059E0,1.241423525E0,3.494645093E0
4.067263375E0,2.069171160E0,1.511097695E0,-4.680301443E-2,2.562630690E0
4.077223375E0,1.356373645E0,-8.186055136E-1,-8.334060589E-1,1.790092207E0
4.087183375E0,1.870622228E0,-6.255532569E-1,2.990107479E-1,1.994981660E0
4.097143375E0,1.476783895E0,3.700843120E-1,-7.299035445E-2,1.524198367E0
4.107103375E0,7.186590564E-1,4.706283545E-1,7.995950460E-2,8.627603432E-1
4.117062375E0,8.594639562E-2,-1.759456426E-1,3.507649653E-1,4.017209391E-1
4.127022375E0,-5.778247744E-2,-5.124102187E-1,5.027845323E-1,7.202050631E-1
4.136982375E0,1.198672631E-1,-4.128695583E-1,9.074812911E-1,1.004167181E0
4.146942375E0,-1.711729990E-1,1.327878116E0,5.802050297E-1,1.459177290E0
4.156902375E0,2.981711608E-1,1.942301783E0,5.940987450E-1,2.052899310E0
4.166861375E0,8.817162663E-2,2.195689119E0,3.448167390E-1,2.224347888E0
4.176821375E0,-4.841094026E-1,2.525130605E0,-1.295649433E-1,2.574380228E0
4.186781375E0,-6.087115216E-1,2.446030056E0,-4.575773692E-1,2.561829385E0
4.196741375E0,-6.408149283E-1,1.827653087E0,-6.022997573E-2,1.937675728E0
4.206701375E0,-1.059534626E0,7.891472411E-1,1.999967024E-2,1.321274755E0
4.216660375E0,-2.133564499E0,-4.030088139E-1,-4.671749890E-1,2.220983126E0
4.226620375E0,-3.503063389E0,-7.048128498E-1,-1.081033376E0,3.733208730E0
4.236580375E0,-3.048907226E0,-1.457762902E0,-1.491168776E0,3.693845188E0
4.246540375E0,-2.476012531E0,-1.951098334E0,-1.403456302E0,3.450668393E0
4.256500375E0,-1.726295404E0,-1.712413237E0,-3.388202731E-1,2.455046658E0
4.266459375E0,-1.296006406E0,-1.095667641E0,3.279726648E-1,1.728492480E0
4.276419375E0,-1.288328719E-1,-1.433269501E-1,1.033004639E0,1.050827820E0
4.286379375E0,2.255092737E-1,9.095168531E-1,9.419488733E-1,1.328662116E0
4.296339125E0,1.104305733E0,1.046662127E0,9.447334635E-1,1.790953399E0
4.306298125E0,2.211580389E0,2.312394281E0,1.733270109E0,3.639021902E0
4.316258125E0,4.283179898E0,3.109470931E0,2.637157409E0,5.913462498E0
4.326218125E0,5.125213743E0,3.929117834E0,2.990422790E0,7.116769726E0
4.336178125E0,3.913917705E0,4.811290183E0,2.132089685E0,6.558435137E0
4.346138125E0,2.285976561E0,3.929645253E0,1.187134466E0,4.698626277E0
4.356098125E0,6.551694041E-1,2.450310218E0,1.395882404E-1,2.540226759E0
4.366057125E0,-1.799369520E-1,1.135971914E0,-3.118145422E-1,1.191653391E0
4.376017125E0,-5.667619886E-1,-2.414718801E-1,-2.377654032E-1,6.603485500E-1
4.385977125E0,-8.463530369E-1,-1.922385582E0,-2.785181574E-1,2.118832733E0
4.395937125E0,3.419711915E-1,-2.925692359E0,1.903617774E0,3.507189858E0
4.405897125E0,1.990801075E0,-3.023237364E0,4.806949210E0,6.017475699E0
4.415856125E0,-3.063561518E0,-3.779902153E0,-9.082666453E-1,4.949547228E0
4.425816125E0,-4.439252901E0,-2.787302213E0,-6.005958202E0,7.971671962E0
4.435776125E0,-2.574671724E0,-1.824555232E0,-4.027210139E0,5.116283591E0
4.445736125E0,-2.013712366E0,-1.953934234E0,-1.876066278E0,3.375280901E0
4.455695125E0,-1.699155553E0,-2.379903309E0,8.712257767E-1,3.051246255E0
4.465655125E0,5.346636982E-1,-1.551957453E0,2.714437720E0,3.172161620E0
4.475615125E0,4.023448625E-1,-9.541533279E-1,1.610892125E0,1.915010026E0
4.485575125E0,-5.662272607E-1,-7.821007615E-1,6.612937778E-1,1.170300975E0
4.495535125E0,-9.960631000E-1,-5.610917974E-1,2.162300166E-1,1.163495219E0
4.505494125E0,-1.288637452E0,-2.718031418E-1,-1.604487669E-1,1.326728020E0
4.515454125E0,-1.078792869E0,3.382088006E-1,-4.344761896E-1,1.211176621E0
4.525414125E0,-4.456839864E-1,1.167642188E0,-5.511369127E-1,1.365933524E0
4.535374125E0,-2.534007847E-2,1.502905161E0,-3.262810653E-1,1.538123980E0
4.545334125E0,6.047482789E-2,1.535106947E0,-7.485839367E-2,1.538120387E0
4.555293125E0,3.134882346E-1,1.560815400E0,4.062060714E-2,1.592504198E0
4.565253125E0,7.061743739E-1,1.593163367E0,1.620719540E-1,1.750176871E0
4.575213125E0,7.840180635E-1,1.409421632E0,4.801324189E-2,1.613523762E0
4.585173125E0,5.260323308E-1,1.109265341E0,6.344694933E-2,1.229310834E0
4.595133125E0,2.710621534E-1,8.709322464E-1,1.495109288E-1,9.243111958E-1
4.605092125E0,1.459666756E-1,7.204716933E-1,1.749896228E-1,7.556501170E-1
4.615052125E0,1.629781263E-1,6.695202255E-1,9.971728284E-2,6.962490492E-1
4.625012125E0,2.410654986E-1,5.003889281E-1,-9.251347661E-2,5.630811640E-1
4.634972125E0,1.216141918E-1,1.516405213E-1,-1.595939040E-2,1.950373336E-1
4.644932125E0,4.601466358E-3,-7.868715048E-2,2.677761644E-1,2.791360159E-1
4.654891125E0,-2.889634041E-1,-3.224792057E-1,4.730128125E-1,6.412751421E-1
4.664851125E0,-3.368431833E-1,-4.720381182E-1,5.012875720E-1,7.665328076E-1
4.674811125E0,-2.810741946E-1,-5.072979981E-1,4.623673352E-1,7.417125551E-1
4.684771125E0,-3.205494784E-1,-5.924311191E-1,4.264362315E-1,7.972292384E-1
4.694731125E0,-1.618292215E0,-9.161323929E-1,3.686832825E-1,1.895810016E0
4.704690125E0,-3.134432695E0,-1.164328571E0,5.419474286E-1,3.387334698E0
4.714650125E0,-1.289615984E0,-2.395943391E-1,8.561598408E-1,1.566373042E0
4.724610125E0,2.878935099E-1,6.326576239E-1,6.529381067E-1,9.536595374E-1
4.734570125E0,7.354611768E-1,1.430262862E0,2.753301458E-1,1.631674504E0
4.744530125E0,1.216096456E0,1.731096845E0,9.812442821E-2,2.117832685E0
4.754489125E0,9.868310773E-1,6.804147577E-1,1.850561893E-1,1.212866691E0
4.764449125E0,-3.239375013E-1,-7.066664171E-1,3.841386795E-2,7.783241967E-1
4.774409125E0,-2.010246721E0,-9.431120306E-1,-1.816145182E-3,2.220485416E0
4.784369125E0,-1.615323583E0,-2.606536710E-1,6.137331835E-1,1.747535131E0
4.794329125E0,-1.030248700E-1,4.665329647E-1,1.460191251E0,1.536367671E0
4.804288125E0,1.294000811E0,1.304483407E0,1.528244655E0,2.389905183E0
4.814248125E0,1.544954389E0,1.642397507E0,8.977084742E-1,2.426980458E0
4.824208125E0,7.414319149E-1,8.072677624E-1,5.385718310E-1,1.221254331E0
4.834168125E0,-1.943436143E-1,-1.947824478E-2,-6.797739029E-2,2.068085299E-1
4.844128125E0,-6.897799507E-1,2.629516268E-1,-7.900944901E-1,1.081290544E0
4.854087125E0,-9.442371811E-1,6.237031978E-1,-7.436290792E-1,1.354095174E0
4.864047125E0,-7.325366919E-1,3.086318296E-1,-4.232870308E-1,9.005751061E-1
4.874007125E0,-5.331464919E-1,-1.439999646E-1,-1.168263455E-1,5.644728219E-1
4.883967125E0,-4.965107623E-1,-3.867073613E-1,1.180206393E-1,6.403080444E-1
4.893927125E0,-5.983179496E-1,-3.679173338E-1,2.748623320E-1,7.542525008E-1
4.903886125E0,-2.202508727E-1,-1.493250239E-1,4.156282747E-1,4.935131937E-1
4.913846125E0,1.105261168E-1,-1.746270955E-2,5.692445701E-1,5.801382157E-1
4.923806125E0,1.504357025E-1,3.698410678E-1,4.922361553E-1,6.338057656E-1
4.933766125E0,2.284112468E-1,6.373926991E-1,1.348747998E-1,6.903856619E-1
4.943726125E0,1.315911497E-1,4.196412188E-1,8.368461952E-3,4.398693151E-1
4.953685125E0,2.088555264E-1,2.925671893E-1,-1.752480698E-1,3.999100863E-1
4.963645125E0,4.295453788E-1,1.140183663E-1,-4.508402804E-1,6.330611177E-1
4.973605125E0,3.706193322E-1,2.487604344E-1,-1.582584000E-1,4.735886023E-1
4.983565125E0,2.276702584E-1,4.035163522E-3,6.378979716E-1,6.773210844E-1
4.993525125E0,-5.164874822E-2,-5.443523884E-2,8.633764744E-2,1.143895877E-1
5.003484125E0,-3.969975838E-1,-1.519410682E-1,-3.471632266E-1,5.488310083E-1
5.013444125E0,-4.719806693E-1,-5.652971148E-1,-7.127938606E-2,7.398698069E-1
5.023404125E0,-4.664910109E-1,-4.422734517E-1,-3.752381209E-1,7.443274258E-1
5.033364125E0,-1.452644250E-1,-2.034901214E-1,-1.763638647E-1,3.059643695E-1
5.043324125E0,3.504724583E-1,-3.364341706E-1,4.417068565E-1,6.566002149E-1
5.053283125E0,6.132809745E-1,-4.331728452E-1,9.261567863E-1,1.192274574E0
5.063243125E0,1.276157740E-1,-2.283647615E-1,9.814276654E-1,1.015695088E0
5.073203125E0,-1.731113510E-1,1.246316475E-1,9.831251851E-1,1.005999859E0
5.083163125E0,-2.262107934E-1,2.859083802E-1,8.524742677E-1,9.271608825E-1
5.093123125E0,-7.146447967E-1,-1.320710599E-1,-1.119894556E-1,7.353241384E-1
5.103082125E0,-5.231142779E-1,2.425249636E-2,-9.411503629E-1,1.077033303E0
5.113042125E0,-6.280731145E-1,3.867874682E-1,-1.563938398E0,1.729156932E0
5.123002125E0,-8.007418312E-1,4.848984843E-1,-1.212754699E0,1.532020881E0
5.132962125E0,-6.710352391E-1,6.196159941E-1,-8.128407437E-1,1.222670171E0
5.142922125E0,-4.488071305E-1,6.472902811E-1,-6.844353032E-1,1.043486575E0
5.152881125E0,-2.741296028E-1,3.159127825E-1,-2.185350803E-1,4.719168429E-1
5.162841125E0,-2.054153171E-1,1.386263734E-1,9.801921487E-2,2.664966987E-1
5.172801125E0,-3.173048584E-1,6.571042478E-2,2.807212421E-1,4.287244440E-1
5.182761125E0,-4.196803951E-1,1.055200231E-1,2.587743759E-1,5.042125415E-1
5.192721125E0,-5.530388658E-1,1.123425543E-1,-1.205790154E-1,5.770720367E-1
5.202680125E0,-7.816638283E-1,-4.296534061E-2,-1.044675974E-1,7.897834133E-1
5.212640125E0,-9.003522196E-1,-2.020289022E-1,3.179685174E-1,9.759886141E-1
5.222600125E0,-9.338833702E-1,-2.826117200E-1,9.713521819E-1,1.376783423E0
5.232560125E0,-8.896627785E-1,-2.858732969E-1,7.155225369E-1,1.176943457E0
5.242520125E0,-8.309973715E-1,-2.912965894E-1,7.818638762E-1,1.177591379E0
5.252479125E0,-8.262415387E-1,-9.490446156E-1,1.993407032E0,2.357335861E0
5.262439125E0,-8.815369029E-1,-5.033076827E0,4.353029859E0,6.712513584E0
5.272399125E0,-2.474395191E0,-4.238058397E0,4.697911502E0,6.793684053E0
5.282359125E0,4.694203198E-1,1.694627761E0,-3.162856595E0,3.618809269E0
5.292318833E0,1.616244081E0,6.586274475E-1,-3.201238888E0,3.646089064E0
5.302277833E0,3.393602635E-1,2.622401376E0,-1.863123174E-1,2.650823767E0
5.312237833E0,-9.511192077E-1,4.526170592E0,-2.989973724E-1,4.634678781E0
5.322197833E0,-3.600575066E-1,2.866189338E0,-7.155670488E-1,2.976024014E0
5.332157833E0,-2.402059579E-1,2.037941766E-1,-1.383141321E-1,3.440374511E-1
5.342117833E0,-5.255139752E-1,-6.114024103E-1,4.320310302E-1,9.146740712E-1
5.352076833E0,-2.335975809E-1,-2.900692588E-1,5.181397592E-1,6.381040783E-1
5.362036833E0,6.353511438E-2,1.483672500E-2,6.369224368E-1,6.402554410E-1
5.371996833E0,1.302508217E-1,3.221231103E-2,2.613184994E-1,2.937520514E-1
5.381956833E0,2.468574581E-1,1.487356246E-2,4.553226829E-2,2.514617564E-1
5.391915833E0,1.453763992E-1,1.281493324E-1,9.164107203E-2,2.143703219E-1
5.401875833E0,2.101742198E-1,7.155237794E-2,2.090951892E-1,3.049815463E-1
5.411835833E0,1.977095640E-1,1.691815835E-1,6.521165729E-2,2.682611417E-1
5.421795833E0,2.703944014E-1,1.507926750E-1,-1.426245533E-1,3.408714220E-1
5.431755833E0,4.177180696E-1,-8.647739589E-2,-2.723282218E-2,4.274439756E-1
5.441715833E0,2.365986644E-1,-8.393853486E-2,-1.127203576E-1,2.751917234E-1
5.451674833E0,-2.703737900E-2,8.405781806E-2,-3.632431427E-1,3.738212372E-1
5.461634833E0,-7.551342800E-2,3.871727997E-1,-4.886192138E-1,6.279759476E-1
5.471594833E0,1.301734923E-1,3.612006372E-1,-3.092622326E-1,4.930052402E-1
5.481554833E0,4.655221273E-1,2.317701799E-1,-1.215221713E-1,5.340373633E-1
5.491514833E0,6.705728705E-1,1.553429782E-1,-1.598943047E-1,7.066580533E-1
5.501473833E0,7.546748351E-1,-2.052372694E-4,-1.789553507E-1,7.756024538E-1
5.511433833E0,6.862568571E-1,-6.711024821E-2,5.683347434E-3,6.895538846E-1
5.521393833E0,4.576596688E-1,-3.599458247E-1,3.573500995E-1,6.831635696E-1
5.531353833E0,3.568311591E-1,1.799825603E-1,5.210820781E-1,6.566953100E-1
5.541312833E0,3.101041585E-1,1.157663330E0,4.134887785E-1,1.267802013E0
5.551272833E0,2.015065996E-1,7.745362186E-1,4.989126523E-1,9.430933667E-1
5.561232833E0,1.860661496E-1,4.419635493E-1,7.980126433E-1,9.310083618E-1
5.571192833E0,1.892296395E-1,3.872435510E-1,8.519229484E-1,9.547450624E-1
5.581152833E0,1.839313312E-1,1.380188477E-1,7.267537956E-1,7.622670243E-1
5.591112833E0,-8.670543730E-3,-1.172214711E-1,5.034715801E-1,5.170103322E-1
5.601071833E0,-3.367392491E-1,-3.859179872E-1,1.719840809E-1,5.402819068E-1
5.611031833E0,-6.669245003E-1,-9.448948467E-1,-1.021112426E-1,1.161051793E0
5.620991833E0,-7.901833677E-1,-1.387122105E0,-3.510639042E-1,1.634546835E0
5.630951833E0,-7.075791675E-1,-1.388535962E0,-5.373503476E-1,1.648467710E0
5.640911833E0,-5.309508625E-1,-8.306858611E-1,-5.837111664E-1,1.145716607E0
5.650870833E0,-2.514074689E-1,-2.251446998E-1,-4.813234967E-1,5.878504570E-1
5.660830833E0,-8.397069454E-2,-1.348367929E-2,-3.084441340E-1,3.199541701E-1
5.670790833E0,5.676900879E-2,-1.522030234E-3,-1.782904492E-1,1.871163306E-1
5.680750833E0,6.893253297E-2,3.287070751E-2,-1.298023403E-1,1.506015440E-1
5.690710833E0,1.861110270E-2,1.047651476E-1,8.049218595E-2,1.334207678E-1
5.700669833E0,-7.427484155E-2,1.519878459E-1,3.522935736E-1,3.908040678E-1
5.710629833E0,-1.820078896E-1,1.722700828E-1,7.141088263E-1,7.568059653E-1
5.720589833E0,-2.119522119E-1,2.120247173E-1,9.998136503E-1,1.043793828E0
5.730549833E0,-2.419346872E-1,1.827477086E-1,6.583637381E-1,7.248254476E-1
5.740509833E0,-2.226477925E-1,1.321798182E-1,2.142968722E-1,3.361051819E-1
5.750468833E0,-2.410694455E-1,1.786973423E-1,1.992228965E-1,3.601902000E-1
5.760428833E0,-2.691286254E-1,1.707673484E-1,2.186073665E-1,3.864982341E-1
5.770388833E0,-2.623907326E-1,1.138680929E-1,2.598536988E-1,3.864437656E-1
5.780348833E0,-2.573880011E-1,9.172994971E-2,3.169804841E-1,4.184968269E-1
5.790308833E0,-2.792868470E-1,8.270711124E-2,3.544563856E-1,4.587820162E-1
5.800267833E0,-3.044576485E-1,4.926396132E-2,3.764373849E-1,4.866482327E-1
5.810227833E0,-3.429897764E-1,-1.742119431E-2,3.596025932E-1,4.972519580E-1
5.820187833E0,-3.696067406E-1,-9.172527194E-2,3.190849701E-1,4.968278237E-1
5.830147833E0,-3.731583394E-1,-1.230423743E-1,2.545537826E-1,4.681711229E-1
5.840107833E0,-3.456762797E-1,-1.186920458E-1,1.566175251E-1,3.976291504E-1
5.850066833E0,-2.618311541E-1,-1.180693173E-1,1.302104028E-1,3.153579965E-1
5.860026833E0,-1.211750659E-1,-1.089804053E-1,1.657695870E-1,2.324643657E-1
5.869986833E0,4.978509441E-2,-6.128466725E-2,2.556974979E-1,2.676108677E-1
5.879946833E0,1.880508408E-1,-2.066815317E-2,3.021273869E-1,3.564705447E-1
5.889906833E0,2.819561009E-1,-2.574353635E-2,3.175727340E-1,4.254578873E-1
5.899865833E0,3.793261287E-1,-8.283399582E-2,3.026051044E-1,4.922597201E-1
5.909825833E0,4.274517833E-1,-1.392841852E-1,2.285857131E-1,5.043476376E-1
5.919785833E0,4.174713171E-1,-1.451740855E-1,1.447038232E-1,4.650774259E-1
5.929745833E0,4.331099877E-1,-1.541706115E-1,1.154626286E-1,4.740089213E-1
5.939705833E0,5.107497557E-1,-1.894199663E-1,1.260180954E-1,5.591294992E-1
5.949664833E0,5.469621469E-1,-2.201541013E-1,1.450582375E-1,6.071880357E-1
5.959624833E0,5.452297631E-1,-2.095127535E-1,2.099887168E-1,6.206982758E-1
5.969584833E0,5.300289027E-1,-2.116867483E-1,2.438979629E-1,6.206674903E-1
5.979544833E0,4.731730628E-1,-1.729676557E-1,2.071311826E-1,5.447144977E-1
5.989504833E0,3.551224566E-1,-8.506412387E-2,1.149568444E-1,3.828353960E-1
5.999463833E0,2.271776305E-1,8.562662601E-3,3.617211856E-2,2.301986472E-1
6.009423833E0,1.642227061E-1,6.510172963E-2,3.092950501E-2,1.793431534E-1
6.019383833E0,9.372034192E-2,1.001323986E-1,-9.426296353E-3,1.374731057E-1
6.029343833E0,6.650096834E-2,5.323889852E-2,-9.124463081E-2,1.248292504E-1
6.039303833E0,7.819554582E-2,-5.157653511E-2,-1.443349370E-1,1.720675925E-1
6.049262833E0,1.578338921E-1,-1.234610349E-1,-1.793966693E-1,2.689559993E-1
6.059222833E0,3.392449272E-1,-2.070224243E-1,-2.300475901E-1,4.592028947E-1
6.069182833E0,4.933867411E-1,-2.086315781E-1,-2.282794652E-1,5.822964245E-1
6.079142833E0,5.867936723E-1,-1.841715056E-1,-1.589016668E-1,6.352131115E-1
6.089102833E0,5.493690071E-1,-8.068455935E-2,-8.466125071E-2,5.616794739E-1
6.099061833E0,4.162941264E-1,-2.143238425E-2,-2.528986551E-2,4.176119299E-1
6.109021833E0,2.975165650E-1,-6.904392242E-3,-2.162885070E-2,2.983816085E-1
6.118981833E0,1.475981949E-1,-4.609827876E-2,-4.894112192E-2,1.621897403E-1
6.128941833E0,4.046068579E-2,-8.825553417E-2,-1.208958614E-1,1.550545572E-1
6.138901833E0,-1.419601634E-2,-1.704621238E-1,-1.711280485E-1,2.419579953E-1
6.148860833E0,-6.085489690E-3,-2.476488787E-1,-2.035006464E-1,3.205924412E-1
6.158820833E0,5.626702532E-2,-2.954422653E-1,-2.480083363E-1,3.898207859E-1
6.168780833E0,1.563261876E-1,-2.666915059E-1,-3.135265338E-1,4.402966314E-1
6.178740833E0,2.125250928E-1,-1.507330334E-1,-3.731410901E-1,4.551061806E-1
6.188700833E0,1.924457543E-1,3.132353425E-3,-4.410097222E-1,4.811805847E-1
6.198659833E0,1.295248168E-1,8.447998703E-2,-4.715446863E-1,4.962539043E-1
6.208619833E0,5.599703014E-2,9.850862682E-2,-4.723234624E-1,4.857253031E-1
6.218579833E0,2.457000017E-3,5.983455777E-3,-5.077113962E-1,5.077525977E-1
6.228539833E0,5.900820002E-2,-6.443163872E-2,-5.930589639E-1,5.994600390E-1
6.238499833E0,1.931778257E-1,-7.599626184E-2,-6.289497583E-1,6.623223555E-1
6.248458833E0,3.793331453E-1,-1.218121201E-1,-5.576208901E-1,6.853268453E-1
6.258418833E0,6.539422929E-1,-1.919646746E-1,-5.033441839E-1,8.472581225E-1
6.268378833E0,8.753444092E-1,-2.191770315E-1,-4.180594008E-1,9.945049364E-1
6.278338833E0,9.697069216E-1,-2.383079517E-1,-2.969169331E-1,1.041768621E0
6.288298833E0,1.095768725E0,-2.319742477E-1,-2.408404539E-1,1.145654954E0
6.298258833E0,1.185744291E0,-2.408789724E-1,-1.795872885E-1,1.223218622E0
6.308217833E0,1.203625003E0,-2.865913349E-1,-1.018883906E-1,1.241462438E0
6.318177833E0,1.210079452E0,-3.021729952E-1,-5.216425337E-2,1.248327645E0
6.328137833E0,1.189546150E0,-2.780777889E-1,7.805448174E-3,1.221641611E0
6.338097833E0,1.147021982E0,-2.795167887E-1,3.693861544E-2,1.181166171E0
6.348057833E0,1.085339412E0,-2.836262119E-1,1.745335400E-2,1.121922496E0
6.358016833E0,1.108533781E0,-2.726205826E-1,-1.697461322E-2,1.141690529E0
6.367976833E0,1.109820534E0,-2.817007238E-1,-3.096159160E-2,1.145432467E0
6.377936833E0,1.161203600E0,-2.398545402E-1,-6.472151443E-2,1.187481737E0
6.387896833E0,1.292856511E0,-1.401103967E-1,-1.103967471E-1,1.305103951E0
6.397856833E0,1.334682814E0,-1.397543013E-2,-1.348287530E-1,1.341548478E0
6.407815833E0,1.274062390E0,9.402439713E-2,-1.164670341E-1,1.282825059E0
6.417775833E0,1.146851536E0,1.073642349E-1,-1.226389164E-1,1.158376376E0
6.427735833E0,1.007250724E0,6.058183193E-2,-8.894784451E-2,1.012983661E0
6.437695833E0,9.171205723E-1,7.934788585E-2,-5.464047611E-2,9.221669116E-1
6.447655833E0,8.999024957E-1,8.430281639E-2,-7.822434336E-2,9.072213150E-1
6.457614833E0,9.894228557E-1,1.001066709E-1,-1.706708694E-1,1.009013121E0
6.467574833E0,1.156129898E0,1.038196528E-1,-2.572600932E-1,1.188948113E0
6.477534833E0,1.302652643E0,1.652657032E-2,-3.167857718E-1,1.340720054E0
6.487494833E0,1.488592347E0,-1.262121499E-1,-4.335482365E-1,1.555570878E0
6.497454833E0,1.768241575E0,-9.096513391E-2,-5.077366854E-1,1.841941765E0
6.507413833E0,2.007298847E0,8.227090895E-2,-4.633627506E-1,2.061727966E0
6.517373833E0,2.129814388E0,2.132602340E-1,-4.503152736E-1,2.187320987E0
6.527333833E0,2.258048797E0,3.273189461E-1,-4.353228664E-1,2.322806075E0
6.537293833E0,2.376265172E0,3.778096533E-1,-4.117832918E-1,2.441094382E0
6.547253833E0,2.665296842E0,4.752950174E-1,-4.702892160E-1,2.747887290E0
6.557212833E0,3.014686688E0,5.429168969E-1,-6.749138434E-1,3.136654792E0
6.567172833E0,3.306150508E0,4.967952293E-1,-9.302417243E-1,3.470271797E0
6.577132833E0,3.622426403E0,5.796011585E-1,-8.463623925E-1,3.764869167E0
6.587092833E0,3.929105555E0,8.463002658E-1,-2.969707274E-1,4.030171983E0
6.597052833E0,4.018819385E0,9.886472225E-1,1.597737059E-2,4.138669817E0
6.607011833E0,3.923234950E0,9.454982793E-1,-7.615121305E-2,4.036277800E0
6.616971833E0,3.773654695E0,9.724504352E-1,-2.366999674E-1,3.904120449E0
6.626931833E0,3.729073769E0,1.164004635E0,-2.192980689E-1,3.912670394E0
6.636891833E0,3.712996557E0,1.461292866E0,-2.801903880E-1,4.000028366E0
6.646851833E0,3.548654130E0,1.735810871E0,-7.151782089E-1,4.014656321E0
6.656810833E0,2.995569217E0,1.934256599E0,-1.155115698E0,3.748209679E0
6.666770833E0,2.230513674E0,2.121973271E0,-1.238909660E0,3.318562785E0
6.676730833E0,1.497194478E0,2.224835150E0,-9.282507473E-1,2.837804116E0
6.686690833E0,1.019576654E0,2.056911888E0,-7.362393681E-1,2.410906774E0
6.696650833E0,6.801603308E-1,1.571828631E0,-1.112945067E0,2.042525408E0
6.706610833E0,3.676296508E-1,9.267275476E-1,-1.558712742E0,1.850286713E0
6.716569833E0,-2.143845074E-2,2.436967456E-1,-1.337284532E0,1.359476970E0
6.726529833E0,-6.226585928E-1,-2.136607683E-1,-7.567139053E-1,1.002980848E0
6.736489833E0,-1.399341324E0,-1.183458906E-1,-5.544610548E-1,1.509830770E0
6.746449833E0,-2.013450557E0,7.174083370E-1,-6.028888277E-1,2.220840563E0
6.756409833E0,-2.570127853E0,2.028972137E0,-5.481086032E-1,3.320046408E0
6.766368833E0,-3.293441877E0,3.273767166E0,-3.420341221E-1,4.656318095E0
6.776328833E0,-3.944733700E0,4.126150875E0,3.749234676E-2,5.708541906E0
6.786288833E0,-4.537124474E0,4.089466614E0,5.203368504E-1,6.130251717E0
6.796248833E0,-4.801457213E0,3.534213261E0,1.002554240E0,6.045640557E0
6.806208833E0,-4.493320935E0,3.070161855E0,1.407862033E0,5.621201148E0
6.816167833E0,-3.357660970E0,2.210093150E0,1.358922300E0,4.243238002E0
6.826127833E0,-1.981931872E0,1.164380611E0,1.353267896E0,2.667427628E0
6.836087833E0,-6.783588767E-1,7.633686215E-1,7.473829186E-1,1.265497390E0
6.846047833E0,5.014060512E-1,7.684141839E-1,3.281293702E-1,9.744420300E-1
6.856007833E0,1.564204154E0,7.197209108E-1,2.931524956E-1,1.746617076E0
6.865966833E0,2.031256352E0,6.655306703E-1,3.018323949E-1,2.158711707E0
6.875926833E0,1.849541554E0,5.446529353E-1,2.892376386E-1,1.949643350E0
6.885886833E0,1.241470595E0,4.095828384E-1,5.966355595E-1,1.437004290E0
6.895846833E0,1.737833422E-1,1.401793939E-1,1.059204112E0,1.082480606E0
6.905806833E0,-1.152625661E0,-1.187616277E-1,1.443241050E0,1.850836289E0
6.915765833E0,-1.980962403E0,-3.280919480E-1,1.712088132E0,2.638769058E0
6.925725833E0,-2.999379555E0,-6.842569631E-1,1.741335905E0,3.535072282E0
6.935685833E0,-3.481154749E0,-9.687473935E-1,1.636432470E0,3.966714148E0
6.945645833E0,-3.493821280E0,-1.201737887E0,1.466208328E0,3.975012949E0
6.955605833E0,-3.516302362E0,-1.478628691E0,1.348184912E0,4.045778994E0
6.965565833E0,-3.477976495E0,-1.663256280E0,1.264295493E0,4.057238599E0
6.975524833E0,-3.391297370E0,-1.722374554E0,1.262310948E0,4.007605381E0
6.985484833E0,-3.292592569E0,-1.728608270E0,1.379728009E0,3.966472206E0
6.995444833E0,-3.209824355E0,-1.644677337E0,1.420143086E0,3.876176249E0
7.005404833E0,-3.165477609E0,-1.520554397E0,1.465456084E0,3.805245814E0
7.015364833E0,-3.184010944E0,-1.555473969E0,1.456075981E0,3.831133282E0
7.025323833E0,-3.137360103E0,-1.697316896E0,1.327123533E0,3.805938772E0
7.035283833E0,-3.177382833E0,-1.804900986E0,1.117654341E0,3.821332289E0
7.045243833E0,-3.092475999E0,-1.793853257E0,1.159822999E0,3.758524538E0
7.055203833E0,-2.863328003E0,-1.791205637E0,1.193147743E0,3.581991963E0
7.065163833E0,-2.624242664E0,-1.841931987E0,1.100536910E0,3.389770567E0
7.075122833E0,-2.093071654E0,-1.871434699E0,1.038416676E0,2.993580794E0
7.085082833E0,-1.631655003E0,-1.866860422E0,9.195123759E-1,2.644422223E0
7.095042833E0,-1.285367104E0,-1.831172526E0,7.034413853E-1,2.345248643E0
7.105002833E0,-9.640737140E-1,-1.776916797E0,4.772628978E-1,2.077173874E0
7.114962833E0,-6.539265785E-1,-1.568124420E0,1.587171140E-1,1.706407129E0
7.124921833E0,-3.191673428E-1,-1.113651338E0,-2.485864797E-1,1.184855406E0
7.134881833E0,-2.212317431E-1,-1.132507439E0,-6.241426161E-1,1.311895799E0
7.144841833E0,-1.510101914E-2,-9.523611563E-1,-9.825751814E-1,1.368456722E0
7.154801833E0,5.991115630E-2,-6.878372133E-1,-1.609702216E0,1.751528077E0
7.164761833E0,1.410020971E-1,-6.161579508E-1,-2.111531314E0,2.204109049E0
7.174721833E0,3.776661041E-1,-3.958617622E-1,-2.589093589E0,2.646269796E0
7.184680833E0,9.824646690E-1,-2.277782857E-2,-2.914466289E0,3.075690070E0
7.194640833E0,1.856187792E0,6.561640155E-1,-2.912026831E0,3.515093825E0
7.204600833E0,2.825843258E0,1.668139290E0,-2.577171993E0,4.172516541E0
7.214560833E0,3.290826418E0,2.693638589E0,-2.448238257E0,4.907045743E0
7.224520833E0,3.686898680E0,3.647991892E0,-2.502039658E0,5.758582218E0
7.234479833E0,4.257731354E0,3.831289823E0,-2.547648232E0,6.268777353E0
7.244439833E0,4.434946719E0,3.508418269E0,-2.338855709E0,6.119476872E0
7.254399833E0,4.577350394E0,2.680627365E0,-1.681983011E0,5.564797080E0
7.264359833E0,3.642740507E0,1.078587924E0,-1.446042159E0,4.064965958E0
7.274319833E0,2.091316320E0,-6.170321095E-1,-1.833822776E0,2.849076789E0
7.284278833E0,8.844299591E-1,-2.110457180E0,-2.318039475E0,3.257230859E0
7.294239250E0,3.478917897E-2,-3.315475940E0,-2.370194300E0,4.075710002E0
7.304199250E0,-9.322289005E-1,-3.951749482E0,-2.105257105E0,4.573563400E0
7.314159250E0,-1.390702940E0,-3.518270243E0,-1.644295806E0,4.125044105E0
7.324119250E0,-1.287602787E0,-2.282977524E0,-1.348178772E0,2.947455396E0
7.334079250E0,-1.393709579E0,-6.815882939E-1,-1.148685807E0,1.930406194E0
7.344038250E0,-2.277954766E0,5.990320408E-1,-7.897234842E-1,2.484266588E0
7.353998250E0,-3.127909541E0,1.447609797E0,-3.772202539E-1,3.467230500E0
7.363958250E0,-3.406061005E0,2.449461202E0,-3.648896456E-1,4.211206027E0
7.373918250E0,-3.054729006E0,4.095599758E0,-5.745846860E-1,5.141542010E0
7.383878250E0,-1.428702533E0,6.916141638E0,-6.043550536E-2,7.062425825E0
7.393837250E0,1.443964351E0,9.953469622E0,2.529007308E0,1.037075063E1
7.403797250E0,4.049462303E0,1.057691964E1,3.673643919E0,1.190651223E1
7.413757250E0,2.818713748E0,7.136538398E0,1.392867726E0,7.798423431E0
7.423717250E0,-1.954992580E0,1.417013656E0,9.369322546E-1,2.589935470E0
7.433677250E0,-6.058342237E0,-2.647223976E0,5.216803944E-1,6.632002403E0
7.443636250E0,-8.018868037E0,-4.544178847E0,-2.207614223E0,9.477624521E0
7.453596250E0,-7.805372745E0,-4.843192007E0,-6.405382088E-1,9.208183410E0
7.463556250E0,-6.568491338E0,-4.788655611E0,2.711468211E0,8.569035003E0
7.473516250E0,-5.049971772E0,-4.183064749E0,4.831103766E0,8.144925364E0
7.483476250E0,-3.640405714E0,-2.419919314E0,5.866630747E0,7.316141030E0
7.493435250E0,-2.738268924E0,-1.370780307E-1,5.877152227E0,6.485200489E0
7.503395250E0,-1.664260247E0,2.112238242E0,5.721801063E0,6.322208472E0
7.513355250E0,-2.302057573E-1,4.177834999E0,5.437667313E0,6.861160672E0
7.523315250E0,1.149915769E0,4.970587633E0,4.122637868E0,6.559359015E0
7.533275250E0,1.726059761E0,4.547127013E0,1.741467028E0,5.166077214E0
7.543235250E0,2.203745705E0,3.263977758E0,-1.344298267E-1,3.940573222E0
7.553194250E0,2.207595512E0,1.703873379E0,-9.238588306E-1,2.937716388E0
7.563154250E0,1.566557074E0,3.540149939E-1,-9.534094890E-1,1.867730531E0
7.573114250E0,-9.668429554E-2,-6.315320349E-1,-5.929521060E-1,8.716494502E-1
7.583074250E0,-1.592469010E0,-1.221202683E0,-6.517379656E-3,2.006822368E0
7.593034250E0,-1.850422145E0,-1.705512353E0,1.053851790E0,2.728266500E0
7.602993250E0,-2.164620816E0,-2.094510654E0,1.471362941E0,3.352233145E0
7.612953250E0,-2.259483119E0,-2.227110302E0,1.745827736E0,3.621215092E0
7.622913250E0,-1.898481287E0,-2.017427394E0,1.914530432E0,3.367442838E0
7.632873250E0,-1.229680561E0,-1.224816847E0,1.906650724E0,2.578295479E0
7.642833250E0,-3.818111953E-1,-3.855209613E-1,1.641109951E0,1.728481435E0
7.652792250E0,2.270637560E-1,2.604145199E-1,1.407894924E0,1.449669544E0
7.662752250E0,6.552699763E-1,5.656970644E-1,1.215385873E0,1.492164445E0
7.672712250E0,1.120109587E0,5.584804308E-1,1.011864177E0,1.609476620E0
7.682672250E0,1.075637127E0,2.302276844E-1,5.979351032E-1,1.252008947E0
7.692632250E0,9.565195499E-1,-1.752217573E-1,1.204777672E-1,9.798710150E-1
7.702592250E0,8.410842571E-1,-4.955334002E-1,-2.181718951E-1,1.000287486E0
7.712551250E0,1.041910826E0,-6.945305210E-1,-2.782257601E-1,1.282716019E0
7.722511250E0,1.170743990E0,-7.795268172E-1,-1.627467592E-1,1.415906090E0
7.732471250E0,1.048697396E0,-8.217279267E-1,-8.260836639E-2,1.334850987E0
7.742431250E0,9.730265321E-1,-9.560150814E-1,-2.831258364E-3,1.364094382E0
7.752391250E0,8.186777267E-1,-1.209855577E0,1.545185208E-1,1.468965524E0
7.762350250E0,5.872124791E-1,-1.416415486E0,2.888922143E-1,1.560291651E0
7.772310250E0,4.003180714E-1,-1.239349517E0,2.393779191E-1,1.324214323E0
7.782270250E0,3.703204664E-1,-8.504827791E-1,-1.988860969E-1,9.486906160E-1
7.792230250E0,5.113720456E-1,-5.545435005E-1,-9.292471129E-1,1.196879300E0
7.802190250E0,6.641763820E-1,-3.648878914E-1,-1.579339964E0,1.751738611E0
7.812149250E0,7.062763347E-1,-9.791104138E-2,-1.835615240E0,1.969237452E0
7.822109250E0,6.849761707E-1,1.395595890E-1,-1.466585181E0,1.624666528E0
7.832069250E0,7.067914744E-1,2.063815695E-1,-7.060004923E-1,1.020090308E0
7.842029250E0,9.357992104E-1,2.212890458E-1,-4.195903480E-2,9.625225008E-1
7.851989250E0,1.372837942E0,1.735441911E-1,4.233916229E-1,1.447087443E0
7.861949250E0,1.805008575E0,-1.300642955E-1,6.644833609E-1,1.927825410E0
7.871908250E0,2.175783443E0,-6.793154812E-1,5.802187707E-1,2.352053770E0
7.881868250E0,2.340160954E0,-1.076159576E0,3.833762026E-1,2.604121740E0
7.891828250E0,2.196327343E0,-1.225372333E0,2.144466341E-1,2.524158971E0
7.901788250E0,1.837969914E0,-1.295131955E0,3.526455760E-2,2.248720475E0
7.911748250E0,1.410124175E0,-1.214066157E0,9.685086809E-2,1.863273171E0
7.921707250E0,1.098562013E0,-7.097256804E-1,3.721665055E-1,1.359800333E0
7.931667250E0,8.868156230E-1,1.600412160E-1,5.716009980E-1,1.067137686E0
7.941627250E0,7.631867731E-1,8.105071199E-1,6.572492588E-1,1.292807963E0
7.951587250E0,7.732159173E-1,1.115502566E0,7.426443350E-1,1.547168200E0
7.961547250E0,5.580059293E-1,1.077310892E0,7.408305287E-1,1.421548187E0
7.971506250E0,2.493311226E-1,1.015442673E0,5.176325132E-1,1.166719011E0
7.981466250E0,3.486744395E-1,1.036569248E0,4.665858820E-2,1.094635416E0
7.991426250E0,7.064605951E-1,9.930495912E-1,-5.003269476E-1,1.317406967E0
8.001386250E0,1.352648091E0,1.204649216E0,-9.633194232E-1,2.051541105E0
8.011346250E0,2.056702557E0,1.557536867E0,-1.511344302E0,2.990001354E0
8.021306250E0,2.761939330E0,1.838281571E0,-1.994225643E0,3.870984876E0
8.031265250E0,3.334850104E0,2.095430421E0,-1.742444098E0,4.306758097E0
8.041225250E0,3.848602259E0,2.078965246E0,-6.773913087E-1,4.426363612E0
8.051185250E0,4.243174126E0,1.585357919E0,1.685211405E-2,4.529698708E0
8.061145250E0,4.836499284E0,1.230481045E0,2.110625580E-2,4.990616635E0
8.071105250E0,5.346540211E0,1.388994969E0,-4.468890975E-1,5.542067224E0
8.081064250E0,5.155019340E0,1.994265404E0,-9.003975356E-1,5.600181659E0
8.091024250E0,4.316483592E0,2.777895797E0,-7.333308899E-1,5.185220328E0
8.100984250E0,3.353459745E0,3.312790899E0,-5.056824124E-1,4.740884992E0
8.110944250E0,2.353681178E0,3.609143575E0,-1.121802356E0,4.452434499E0
8.120904250E0,1.300284813E0,3.398953714E0,-2.214362787E0,4.259933039E0
8.130863250E0,2.082918549E-1,2.342547787E0,-2.453548406E0,3.398649057E0
8.140823250E0,-8.748264921E-1,1.070418195E0,-1.919992901E0,2.365901359E0
8.150783250E0,-1.711033294E0,3.672098207E-1,-1.545617318E0,2.334825663E0
8.160743250E0,-2.111861681E0,6.867554784E-1,-1.554609751E0,2.710794039E0
8.170703250E0,-2.298239926E0,2.265137084E0,-1.387858855E0,3.512677749E0
8.180662250E0,-2.526057096E0,4.434845270E0,-8.743037510E-1,5.178148711E0
8.190622250E0,-3.309662638E0,6.203667181E0,-3.120534740E-2,7.031381589E0
8.200582250E0,-4.472320952E0,6.870644453E0,9.311164677E-1,8.250720439E0
8.210542250E0,-5.385383264E0,5.937596650E0,1.821328154E0,8.220379743E0
8.220502250E0,-5.492763872E0,3.269598101E0,1.942063801E0,6.680743858E0
8.230462250E0,-4.759986128E0,1.027953376E0,1.571974812E0,5.117153593E0
8.240421250E0,-3.404657381E0,2.800143868E-1,1.117251176E0,3.594210640E0
8.250381250E0,-2.036370327E0,-4.157422954E-1,6.521237357E-1,2.178281692E0
8.260341250E0,-1.048522418E0,-1.780494708E-1,6.812915477E-1,1.263035648E0
8.270301250E0,-1.097253406E-1,2.149173349E-1,6.882710767E-1,7.293464103E-1
8.280261250E0,4.821730971E-1,4.510431057E-1,5.586804056E-1,8.649014825E-1
8.290220250E0,5.782425579E-1,5.604836869E-1,6.730215383E-1,1.049506746E0
8.300180458E0,6.299298978E-1,4.761627442E-1,1.159573030E0,1.402908496E0
8.310140458E0,1.413038135E-2,2.426343066E-1,1.289121602E0,1.311832908E0
8.320100458E0,-1.182679765E0,-1.987234712E-2,1.178269210E0,1.669564215E0
8.330060458E0,-2.034361223E0,-4.463244027E-1,9.377501339E-1,2.284120481E0
8.340019458E0,-2.300235288E0,-9.453602850E-1,1.217448771E0,2.768929389E0
8.349979458E0,-2.574840416E0,-1.352804797E0,1.514991356E0,3.279494290E0
8.359939458E0,-3.372630134E0,-1.857703097E0,1.349212267E0,4.079959383E0
8.369899458E0,-3.722115290E0,-2.401183666E0,1.347724443E0,4.629922937E0
8.379859458E0,-3.584222158E0,-2.603942885E0,1.465972101E0,4.666502033E0
8.389818458E0,-3.576148615E0,-2.670700547E0,1.664650841E0,4.763669042E0
8.399778458E0,-3.605273596E0,-2.737625438E0,1.927504234E0,4.920148708E0
8.409738458E0,-3.660692044E0,-2.669410066E0,2.067103000E0,4.979892685E0
8.419698458E0,-3.744922940E0,-2.554040993E0,2.030013234E0,4.966742086E0
8.429658458E0,-3.960086150E0,-2.539012479E0,1.978515636E0,5.103272558E0
8.439618458E0,-4.245536693E0,-2.673431781E0,1.981521397E0,5.394279039E0
8.449577458E0,-4.512176743E0,-2.927393314E0,1.985263031E0,5.733292237E0
8.459537458E0,-4.585193264E0,-3.269951858E0,1.944097755E0,5.957860229E0
8.469497458E0,-4.323817170E0,-3.518524597E0,1.775685081E0,5.850510043E0
8.479457458E0,-3.823341995E0,-3.615686025E0,1.481844952E0,5.466899844E0
8.489417458E0,-3.108014390E0,-3.437191581E0,1.095628172E0,4.761768632E0
8.499376458E0,-2.356883406E0,-2.997530081E0,6.665358067E-1,3.870963182E0
8.509336458E0,-1.589698892E0,-2.416245509E0,2.569020975E-1,2.903684489E0
8.519296458E0,-8.623152047E-1,-1.786131424E0,-6.206702471E-2,1.984365211E0
8.529256458E0,6.777039886E-2,-1.091773396E0,-5.211202312E-1,1.211663431E0
8.539216458E0,8.781556043E-1,-2.870772386E-1,-1.477880248E0,1.742900064E0
8.549175458E0,1.531090203E0,8.726267695E-2,-2.691728596E0,3.097943643E0
8.559135458E0,2.418111940E0,6.532281286E-1,-3.730571533E0,4.493454830E0
8.569095458E0,3.671193351E0,1.933906935E0,-4.334786546E0,6.000669217E0
8.579055458E0,5.066659141E0,3.088097019E0,-4.004151059E0,7.158254239E0
8.589015458E0,6.136916537E0,3.649709219E0,-2.891824701E0,7.703555806E0
8.598975458E0,5.957178390E0,3.914270584E0,-2.571921194E0,7.577880126E0
8.608934458E0,5.767201184E0,4.712595615E0,-3.255719150E0,8.128276208E0
8.618894458E0,6.382983159E0,4.514910609E0,-3.464784007E0,8.551702756E0
8.628854458E0,6.529902638E0,3.477929133E0,-2.828352005E0,7.920555194E0
8.638814458E0,4.882094410E0,2.199681598E0,-2.082035911E0,5.745286633E0
8.648774458E0,2.553251911E0,6.822016668E-1,-1.875735618E0,3.240814488E0
8.658733458E0,5.563871276E-1,-9.003618675E-1,-1.783675155E0,2.074057662E0
8.668693458E0,-1.235941760E0,-2.161851282E0,-1.172581623E0,2.752471737E0
8.678653458E0,-2.355051766E0,-2.689948411E0,-5.575647569E-1,3.618420889E0
8.688613458E0,-2.674339854E0,-2.474521784E0,-9.988611388E-1,3.777972377E0
8.698573458E0,-2.935318630E0,-1.637505142E0,-1.446993647E0,3.659413773E0
8.708532458E0,-3.745297746E0,-7.842408425E-1,-1.417041723E0,4.080477442E0
8.718492458E0,-4.220627262E0,5.566543454E-1,-1.256099597E0,4.438619689E0
8.728452458E0,-4.488545514E0,3.510381179E0,-9.157018916E-1,5.771336657E0
8.738412458E0,-3.988236400E0,7.598115263E0,-9.205271602E-2,8.581716544E0
8.748372458E0,-1.875764562E0,1.128641494E1,2.632629325E0,1.174020408E1
8.758332458E0,7.018486038E-1,1.213785140E1,2.908054233E0,1.250107225E1
8.768291458E0,1.973521237E0,7.419888037E0,1.457714370E0,7.815014762E0
8.778251458E0,-1.827549883E0,5.299314004E-1,3.927179482E0,4.363886404E0
8.788211458E0,-6.806500497E0,-3.252877403E0,2.186792873E0,7.854407902E0
8.798171458E0,-8.936468081E0,-4.098436242E0,-1.895322329E0,1.001248661E1
8.808131458E0,-8.246272101E0,-3.819250991E0,1.469659647E-1,9.088964776E0
8.818090458E0,-6.336089659E0,-3.827912471E0,3.310100595E0,8.108989579E0
8.828050458E0,-4.830638035E0,-3.313773231E0,4.844338354E0,7.601563716E0
8.838010458E0,-3.738076727E0,-1.972866933E0,5.521312902E0,6.953439272E0
8.847970458E0,-2.734273814E0,1.542629975E-1,5.496496149E0,6.140970630E0
8.857930458E0,-1.669513970E0,2.382913456E0,5.309147851E0,6.054139439E0
8.867889458E0,-4.309465179E-1,3.975357615E0,4.934244264E0,6.351058930E0
8.877849458E0,7.473832110E-1,4.593861469E0,4.248843001E0,6.301968876E0
8.887809458E0,1.632581202E0,4.523201961E0,2.566861013E0,5.451004753E0
8.897769458E0,2.199507059E0,3.550739247E0,7.898209865E-1,4.250811415E0
8.907729458E0,2.341959850E0,2.117769123E0,-3.530407747E-1,3.177162222E0
8.917688458E0,1.498478527E0,5.497289032E-1,-6.317262355E-1,1.716600652E0
8.927648458E0,-2.095511989E-1,-5.502931595E-1,-4.070246450E-1,7.158235313E-1
8.937608458E0,-1.471148495E0,-1.224671836E0,-9.520429216E-2,1.916549727E0
8.947568458E0,-2.201528587E0,-1.860129692E0,4.089765552E-1,2.911026007E0
8.957528458E0,-2.646477871E0,-2.402021572E0,9.656395984E-1,3.702163231E0
8.967488458E0,-2.622614507E0,-2.526997620E0,1.354922658E0,3.885825425E0
8.977447458E0,-2.337135166E0,-2.308932729E0,1.671330700E0,3.686016473E0
8.987407458E0,-1.618485027E0,-1.770220565E0,2.005099125E0,3.126275281E0
8.997367458E0,-1.009120079E0,-1.009316545E0,1.951325791E0,2.417584655E0
9.007327458E0,-3.006875101E-1,-1.416201478E-1,1.443104517E0,1.480884835E0
9.017287458E0,1.952297598E-1,3.990672058E-1,1.086356535E0,1.173686421E0
9.027246458E0,6.768419628E-1,5.131750345E-1,8.323792148E-1,1.189251368E0
9.037206458E0,1.080720258E0,4.228121638E-1,4.515032816E-1,1.245223520E0
9.047166458E0,1.541060875E0,2.406111699E-1,-5.623504836E-2,1.560744930E0
9.057126458E0,1.313450989E0,-3.222844934E-1,-3.888831834E-1,1.407213887E0
9.067086458E0,1.315518272E0,-7.195022249E-1,-4.691034007E-1,1.571091906E0
9.077045458E0,1.462990313E0,-8.182353848E-1,-2.488259232E-1,1.694628025E0
9.087005458E0,1.589607237E0,-7.506690538E-1,-4.165560085E-2,1.758434072E0
9.096965458E0,1.633362682E0,-6.775367582E-1,-2.941266418E-2,1.768557269E0
9.106925458E0,1.513768850E0,-6.511927128E-1,-1.653088995E-1,1.656162767E0
9.116885458E0,1.361031244E0,-6.368442303E-1,-3.324925625E-1,1.539002250E0
9.126845458E0,1.230054345E0,-7.646029687E-1,-3.551657990E-1,1.491239128E0
9.136804458E0,1.103144183E0,-8.692605275E-1,-3.357599866E-1,1.444048380E0
9.146764458E0,9.476741745E-1,-9.489557379E-1,-2.835649623E-1,1.370770740E0
9.156724458E0,7.212352666E-1,-8.943602854E-1,-1.568212274E-1,1.159591966E0
9.166684458E0,6.096584782E-1,-7.342956805E-1,-4.042823374E-2,9.552528715E-1
9.176644458E0,6.828602826E-1,-4.818585169E-1,-3.035589315E-2,8.363057312E-1
9.186603458E0,8.505848861E-1,-2.217287564E-1,-6.452446327E-2,8.813748898E-1
9.196563458E0,1.109709730E0,9.838408113E-2,-2.119592285E-1,1.134046659E0
9.206523458E0,1.340312805E0,3.480865020E-1,-4.605267048E-1,1.459344878E0
9.216483458E0,1.412052294E0,1.777454156E-1,-4.758032135E-1,1.500624474E0
9.226443458E0,1.315994820E0,-2.341657841E-1,-1.962736340E-1,1.350999378E0
9.236402458E0,1.154078402E0,-5.838614398E-1,1.072886597E-1,1.297806609E0
9.246362458E0,9.785794866E-1,-7.408246815E-1,2.958661884E-1,1.262527553E0
9.256322458E0,8.044891655E-1,-8.106082767E-1,3.441172658E-1,1.192772102E0
9.266282458E0,7.149665397E-1,-7.365573835E-1,4.630228812E-1,1.126092412E0
9.276242458E0,7.214929095E-1,-4.029240292E-1,8.052243067E-1,1.153813666E0
9.286202458E0,8.446551517E-1,2.260311377E-1,1.162735205E0,1.454814612E0
9.296161083E0,9.905469829E-1,1.003856415E0,1.048499322E0,1.757345116E0
9.306121083E0,1.176454234E0,1.518373970E0,6.150380628E-1,2.016872802E0
9.316081083E0,1.314074302E0,1.529600040E0,8.273210809E-2,2.018244820E0
9.326041083E0,1.330315528E0,1.118782269E0,-4.409299077E-1,1.793274199E0
9.336001083E0,1.540200457E0,7.024353719E-1,-1.066059826E0,2.000529043E0
9.345960083E0,2.020879298E0,4.973232329E-1,-1.552237535E0,2.596290604E0
9.355920083E0,2.673672979E0,4.419033229E-1,-1.378377010E0,3.040350132E0
9.365880083E0,3.214948562E0,6.002658033E-1,-1.173786588E0,3.474764488E0
9.375840083E0,3.794280456E0,1.028076167E0,-1.441845612E0,4.187173695E0
9.385800083E0,4.394900016E0,1.657568108E0,-1.611670535E0,4.965899727E0
9.395760083E0,4.605353879E0,2.174881217E0,-9.404592220E-1,5.179175244E0
9.405719083E0,4.654527793E0,2.169343320E0,-6.080643810E-2,5.135598976E0
9.415679083E0,4.897848271E0,1.847019650E0,5.221417397E-3,5.234541673E0
9.425639083E0,5.077650152E0,1.689041916E0,-2.668862913E-1,5.357856097E0
9.435599083E0,4.954328281E0,1.581870639E0,-4.788290745E-1,5.222734984E0
9.445559083E0,4.612696520E0,1.705481948E0,-6.118672639E-1,4.955806636E0
9.455518083E0,3.854064728E0,2.195419562E0,-9.535656097E-1,4.536845750E0
9.465478083E0,2.212041735E0,2.510522506E0,-1.618071921E0,3.716720144E0
9.475438083E0,4.105119610E-1,2.255383344E0,-1.752002395E0,2.885270610E0
9.485398083E0,-1.254210508E0,1.856678665E0,-1.684292808E0,2.803059387E0
9.495358083E0,-2.649986785E0,1.948578769E0,-1.744661801E0,3.723336404E0
9.505318083E0,-3.260956209E0,2.871857044E0,-1.452729034E0,4.581683089E0
9.515277083E0,-3.440685877E0,4.261184134E0,-5.986625699E-1,5.509483316E0
9.525237083E0,-3.737211632E0,5.564092886E0,5.604754277E-1,6.726069664E0
9.535197083E0,-4.357664362E0,6.598647768E0,1.589254503E0,8.065799460E0
9.545157083E0,-4.926566870E0,6.668541875E0,2.132234112E0,8.560778830E0
9.555117083E0,-4.836351349E0,5.300799782E0,2.084075128E0,7.472090861E0
9.565076083E0,-3.895147265E0,2.975483154E0,1.300772617E0,5.071260358E0
9.575036083E0,-2.913869289E0,9.882706618E-1,6.028678143E-1,3.135404716E0
9.584996083E0,-2.328222694E0,-1.523363400E-1,4.848325570E-1,2.383042148E0
9.594956083E0,-1.544707637E0,-2.922327286E-1,6.645898533E-1,1.706810278E0
9.604916083E0,-8.465169051E-1,6.487427294E-2,6.620951387E-1,1.076647349E0
9.614876083E0,-1.640471435E-1,4.656436032E-1,7.086497927E-1,8.636665787E-1
9.624835083E0,2.436192700E-1,7.607052147E-1,8.797931170E-1,1.188300762E0
9.634795083E0,8.796931297E-2,6.670006603E-1,8.963193950E-1,1.120721615E0
9.644755083E0,-4.717141825E-1,2.571511889E-1,8.904163384E-1,1.039943393E0
9.654715083E0,-9.403053671E-1,-1.704685557E-1,1.167064483E0,1.508400882E0
9.664675083E0,-6.043693793E-1,-4.808890486E-1,1.841649567E0,1.997045255E0
9.674634083E0,-1.292936325E-1,-6.472265464E-1,1.747661422E0,1.868137975E0
9.684594083E0,5.141632140E-2,-1.146612677E0,2.159772012E0,2.445808540E0
9.694554083E0,-4.960587725E-1,-1.573195125E0,2.272719753E0,2.808250752E0
9.704514083E0,-1.377906309E0,-1.830227031E0,2.056014340E0,3.078238416E0
9.714474083E0,-2.136943898E0,-2.183730394E0,1.778806324E0,3.535443338E0
9.724433083E0,-2.992630699E0,-2.425191749E0,1.498105182E0,4.133002862E0
9.734393083E0,-3.441575823E0,-2.673428273E0,1.833452940E0,4.727918417E0
9.744353083E0,-3.915287415E0,-3.042856527E0,2.437711222E0,5.525476214E0
9.754313083E0,-4.601564299E0,-3.221624036E0,2.734083487E0,6.247276842E0
9.764273083E0,-4.883345714E0,-2.987166476E0,2.738715359E0,6.345927098E0
9.774233083E0,-5.141543262E0,-2.544562072E0,2.579202439E0,6.289876666E0
9.784192083E0,-5.321036410E0,-2.203848909E0,2.358364213E0,6.223524745E0
9.794152083E0,-5.389219623E0,-2.091242060E0,2.170511301E0,6.174795608E0
9.804112083E0,-5.282699726E0,-2.264014419E0,1.964763570E0,6.073958640E0
9.814072083E0,-4.946843845E0,-2.562692533E0,1.628543115E0,5.804378496E0
9.824032083E0,-4.366253045E0,-2.842750189E0,1.218879877E0,5.350800169E0
9.833992083E0,-3.639518399E0,-2.939829757E0,7.691985878E-1,4.741345763E0
9.843951083E0,-2.820083750E0,-2.677928874E0,3.566284069E-1,3.905298866E0
9.853911083E0,-2.018521701E0,-1.984478334E0,8.008551210E-2,2.831783502E0
9.863871083E0,-1.307792054E0,-1.376471402E0,-2.134300956E-1,1.910640202E0
9.873831083E0,-6.206641075E-1,-8.707398731E-1,-4.630559179E-1,1.165260762E0
9.883791083E0,3.605276227E-2,-4.172269034E-1,-7.841010940E-1,8.889277902E-1
9.893750083E0,6.979885644E-1,1.396993375E-1,-1.180322460E0,1.378355923E0
9.903710083E0,1.293644715E0,8.470346761E-1,-1.838724643E0,2.402476370E0
9.913670083E0,1.898338615E0,1.399479026E0,-2.344025817E0,3.325159857E0
9.923630083E0,2.542942978E0,1.932700655E0,-2.935257819E0,4.337929145E0
9.933590083E0,3.241495506E0,2.320008525E0,-3.474031963E0,5.287592151E0
9.943549083E0,4.012426331E0,2.629059600E0,-3.361545568E0,5.857602585E0
9.953509083E0,4.363527658E0,2.938604765E0,-2.941778634E0,6.027423422E0
9.963469083E0,4.595451912E0,3.531007233E0,-2.786183056E0,6.430319305E0
9.973429083E0,5.191180276E0,3.766819593E0,-2.833088250E0,7.011681077E0
9.983389083E0,5.300635475E0,3.714380593E0,-2.897357336E0,7.091406008E0
9.993349083E0,4.901589904E0,3.119519371E0,-2.309670356E0,6.252324515E0
1.000330808E1,3.704039208E0,1.965147439E0,-1.832685785E0,4.576073437E0
1.001326808E1,2.412931015E0,4.494023770E-1,-1.619912478E0,2.940801764E0
1.002322808E1,9.750351968E-1,-1.102335806E0,-1.417748652E0,2.043489443E0
1.003318808E1,-2.754120433E-1,-2.285957265E0,-1.284950198E0,2.636768746E0
1.004314808E1,-1.101092688E0,-2.983170488E0,-1.129705453E0,3.374603040E0
1.005310808E1,-1.400552867E0,-3.006786808E0,-1.109644825E0,3.497660201E0
1.006306708E1,-1.207091013E0,-2.134868721E0,-1.649622327E0,2.955670312E0
1.007302708E1,-1.393669817E0,-6.354350513E-1,-1.942045090E0,2.473384806E0
1.008298708E1,-2.567853286E0,1.090939583E0,-2.158917149E0,3.527739067E0
1.009294708E1,-3.781002891E0,3.061948856E0,-1.756219700E0,5.172602951E0
1.010290708E1,-3.870423191E0,5.308290065E0,-1.084531911E0,6.658402853E0
1.011286608E1,-3.316631350E0,7.620917650E0,-6.853381133E-1,8.339551407E0
1.012282608E1,-1.119301210E0,9.402770666E0,1.627912492E0,9.608071111E0
1.013278608E1,2.140975553E0,8.670307503E0,5.060137156E0,1.026464790E1
1.014274608E1,1.632216336E0,4.872716353E0,3.478386970E0,6.205374343E0
1.015270608E1,-3.437191289E0,-1.681249917E-1,2.238731935E0,4.105419668E0
1.016266608E1,-7.728778898E0,-3.827393239E0,2.024125965E0,8.858896555E0
1.017262508E1,-9.342569488E0,-5.346106347E0,-2.164015921E0,1.097940903E1
1.018258508E1,-8.210322250E0,-5.196454464E0,-1.357122381E0,9.810928172E0
1.019254508E1,-6.060606279E0,-4.830376080E0,2.804456189E0,8.241872121E0
1.020250508E1,-4.115288795E0,-4.192360652E0,5.228036445E0,7.864086392E0
1.021246508E1,-2.928458969E0,-2.332382988E0,6.452229395E0,7.459701502E0
1.022242408E1,-1.967584266E0,2.741051906E-1,6.273388796E0,6.580420084E0
1.023238408E1,-8.250242946E-1,2.751796750E0,5.663859833E0,6.350776224E0
1.024234408E1,4.299472287E-1,4.616840442E0,4.838882024E0,6.701854186E0
1.025230408E1,1.355835116E0,5.736387527E0,3.533958907E0,6.872648418E0
1.026226408E1,1.954492351E0,5.707012285E0,2.007198422E0,6.357584059E0
1.027222408E1,2.832281334E0,3.922809858E0,4.824117366E-1,4.862404325E0
1.028218308E1,2.907667732E0,1.452206293E0,-6.749989935E-1,3.319496708E0
1.029214308E1,2.007435818E0,-1.478012395E-1,-7.914685857E-1,2.162883791E0
1.030210358E1,2.346211360E-1,-7.846694434E-1,-4.757785821E-1,9.471633819E-1
1.031206358E1,-1.043915982E0,-1.167696567E0,-1.186517000E-2,1.566338607E0
1.032202358E1,-1.660223329E0,-1.651760654E0,7.257213235E-1,2.451800604E0
1.033198258E1,-2.172230967E0,-2.068318636E0,1.406419086E0,3.312784931E0
1.034194258E1,-2.400426452E0,-2.257482494E0,1.782649992E0,3.746480395E0
1.035190258E1,-2.095694861E0,-2.228738751E0,2.141598866E0,3.734388715E0
1.036186258E1,-1.969688825E0,-1.878694602E0,2.252384892E0,3.533044746E0
1.037182258E1,-1.598426738E0,-1.236146997E0,1.999552456E0,2.842751741E0
1.038178258E1,-7.770014048E-1,-3.373726487E-1,1.601499742E0,1.811726500E0
1.039174158E1,-5.636128244E-1,4.915227950E-1,8.360343093E-1,1.121698462E0
1.040170158E1,-2.490755993E-1,8.499769950E-1,6.531632245E-1,1.100509766E0
1.041166158E1,2.705600238E-1,8.280113447E-1,4.547905862E-1,9.826698279E-1
1.042162158E1,1.225789824E-1,4.219046760E-1,-1.943357205E-1,4.804118387E-1
1.043158158E1,-3.481914595E-2,-9.282630265E-2,-6.614007819E-1,6.687900191E-1
1.044154058E1,-7.303625509E-2,-6.493713051E-1,-7.307522678E-1,9.803143697E-1
1.045150058E1,1.597248816E-1,-8.879669398E-1,-5.290367764E-1,1.045885861E0
1.046146058E1,4.667335242E-1,-1.067320340E0,-1.888101017E-1,1.180111073E0
1.047142058E1,8.270947936E-1,-1.145072520E0,7.643480301E-2,1.414609188E0
1.048138058E1,1.129712762E0,-1.088698930E0,2.364239788E-1,1.586635617E0
1.049134058E1,1.275789365E0,-9.663313240E-1,2.257597538E-1,1.616292733E0
1.050129958E1,1.307038055E0,-8.501617670E-1,1.483671769E-1,1.566249127E0
1.051125958E1,1.294523552E0,-7.415818959E-1,6.567702256E-2,1.493334660E0
1.052121958E1,1.289077163E0,-5.650848609E-1,-1.793920646E-1,1.418880666E0
1.053117958E1,1.291207011E0,-4.005108833E-1,-4.879185712E-1,1.437250516E0
1.054113958E1,1.275925898E0,-3.194140953E-1,-5.876976518E-1,1.440625139E0
1.055109958E1,1.231831752E0,-2.957527524E-1,-5.242556544E-1,1.371029958E0
1.056105858E1,1.130991256E0,-2.718031418E-1,-3.714075369E-1,1.221049437E0
1.057101858E1,1.096832699E0,-1.433906847E-1,-2.125720167E-1,1.126405664E0
1.058097858E1,9.230490643E-1,-9.641123056E-2,2.756392077E-2,9.284796552E-1
1.059093858E1,7.896571183E-1,-3.484063447E-1,3.262145533E-1,9.226924083E-1
1.060089858E1,7.260022822E-1,-6.913888121E-1,3.655854642E-1,1.067122549E0
1.061085758E1,6.101899901E-1,-9.552835947E-1,1.638132548E-1,1.145309283E0
1.062081758E1,4.889394951E-1,-9.885361254E-1,-1.266566844E-1,1.110093427E0
1.063077758E1,4.440574372E-1,-8.068455935E-1,-3.673074692E-1,9.915147988E-1
1.064073758E1,4.624706116E-1,-5.571887809E-1,-9.780462205E-2,7.306874491E-1
1.065069758E1,6.588937882E-1,-1.057755464E-1,5.702630089E-1,8.777980347E-1
1.066065758E1,1.008991732E0,5.089533448E-1,1.125388307E0,1.594865720E0
1.067061658E1,1.441695046E0,9.744759107E-1,1.278377197E0,2.159244350E0
1.068057658E1,1.840385984E0,1.165955851E0,1.041946201E0,2.414979400E0
1.069053658E1,2.005199112E0,1.159795809E0,7.683503030E-1,2.440555672E0
1.070049658E1,2.106376408E0,1.141719142E0,6.508037268E-1,2.482718201E0
1.071045658E1,2.396136642E0,1.289442029E0,4.653471494E-1,2.760557828E0
1.072041658E1,2.770847856E0,1.547333475E0,9.233820632E-2,3.174959065E0
1.073037558E1,3.326381290E0,1.909667888E0,-5.047895426E-1,3.868650463E0
1.074033558E1,3.909931365E0,2.201338699E0,-1.165522134E0,4.635935417E0
1.075029558E1,4.276602073E0,2.531159084E0,-1.433091599E0,5.172025051E0
1.076025558E1,4.344958363E0,2.828332125E0,-9.435686982E-1,5.269577561E0
1.077021558E1,4.324300734E0,2.793230120E0,-1.226735611E-1,5.149442703E0
1.078017458E1,4.541114906E0,2.576318300E0,2.526336300E-1,5.227137297E0
1.079013458E1,4.747069044E0,2.552423068E0,5.828446090E-2,5.390076540E0
1.080009458E1,4.830174351E0,2.650109577E0,-3.892191790E-1,5.523147345E0
1.081005458E1,4.951039222E0,3.056641338E0,-7.143602566E-1,5.862265451E0
1.082001458E1,4.450269640E0,3.717856763E0,-9.176510610E-1,5.871068238E0
1.082997458E1,3.069984099E0,3.787578962E0,-1.366089086E0,5.063275240E0
1.083993358E1,1.545526101E0,2.457069599E0,-1.988891813E0,3.518740199E0
1.084989358E1,5.414586014E-1,9.063038081E-1,-2.102170506E0,2.352378551E0
1.085985358E1,-1.137529119E-1,-1.623426801E-1,-2.035935001E0,2.045562563E0
1.086981358E1,-8.659682527E-1,-6.377183890E-1,-2.095167881E0,2.355061402E0
1.087977358E1,-9.243752128E-1,-2.405638075E-1,-2.022065406E0,2.236311469E0
1.088973358E1,-7.620428384E-1,1.420907902E0,-1.868542081E0,2.468023108E0
1.089969258E1,-1.004162444E0,3.981137003E0,-1.277525403E0,4.299984327E0
1.090965258E1,-2.311958810E0,6.230241607E0,1.447544016E-2,6.645394913E0
1.091961258E1,-4.198648748E0,7.371505836E0,1.611172206E0,8.635023189E0
1.092957258E1,-5.722632537E0,6.704192349E0,2.613457475E0,9.193741250E0
1.093953258E1,-5.944168335E0,4.294042563E0,2.800562528E0,7.849527961E0
1.094949258E1,-4.825246902E0,1.533843949E0,2.318742603E0,5.568864533E0
1.095945158E1,-3.805684281E0,7.860412002E-3,1.989468494E0,4.294331091E0
1.096941158E1,-2.866137298E0,3.686610997E-2,1.785389120E0,3.376938914E0
1.097937158E1,-1.509527572E0,6.471850312E-1,1.170771618E0,2.016984912E0
1.098933158E1,2.943926901E-2,8.908706671E-1,6.898556721E-1,1.127128238E0
1.099929158E1,8.200404203E-1,5.939420396E-1,4.707871065E-1,1.116635096E0
1.100925058E1,1.021722144E0,2.575160551E-1,6.487674339E-1,1.237388315E0
1.101921058E1,1.058007772E0,1.167285508E-1,8.357720616E-1,1.353336964E0
1.102917058E1,1.128971920E0,-3.958833969E-1,1.295898817E0,1.763704908E0
1.103913058E1,4.219415134E-1,-6.985405415E-1,1.651036476E0,1.841715226E0
1.104909058E1,-4.518216625E-1,-7.944933504E-1,1.501629591E0,1.757911809E0
1.105905058E1,-1.109922568E0,-1.066746728E0,1.369380776E0,2.060359289E0
1.106900958E1,-1.744702439E0,-1.414840831E0,1.456218945E0,2.677001082E0
1.107896958E1,-2.178680738E0,-1.888583413E0,1.650633895E0,3.322346960E0
1.108892958E1,-2.481812969E0,-2.238429927E0,1.753491389E0,3.774214647E0
1.109888958E1,-2.751069649E0,-2.501284490E0,1.862020974E0,4.158356697E0
1.110884958E1,-2.990271347E0,-2.637752071E0,1.842829243E0,4.392661874E0
1.111880958E1,-3.142529919E0,-2.745847208E0,2.036361556E0,4.643483560E0
1.112876858E1,-3.279340440E0,-2.903251914E0,2.344840773E0,4.968020093E0
1.113872858E1,-3.454500509E0,-3.047806780E0,2.632421749E0,5.305878268E0
1.114868858E1,-3.668864405E0,-3.142215924E0,2.806852671E0,5.586815627E0
1.115864858E1,-4.098197968E0,-3.169093235E0,2.769678997E0,5.874478723E0
1.116860858E1,-4.506154696E0,-3.211902455E0,2.610630931E0,6.118589820E0
1.117856858E1,-4.903970013E0,-3.253598365E0,2.478686755E0,6.385821188E0
1.118852758E1,-5.063619758E0,-3.336035335E0,2.186201719E0,6.445840113E0
1.119848758E1,-4.803644949E0,-3.496257815E0,1.689279605E0,6.176770118E0
1.120844758E1,-4.162401858E0,-3.403317491E0,1.152694366E0,5.498805641E0
1.121840758E1,-3.313145825E0,-3.095810081E0,6.222861251E-1,4.576922037E0
1.122836758E1,-2.365750709E0,-2.601419227E0,2.261995375E-1,3.523538653E0
1.123832658E1,-1.594476652E0,-1.932862623E0,-2.169410563E-1,2.515030245E0
1.124828658E1,-8.618062046E-1,-1.396350766E0,-7.408150336E-1,1.800364494E0
1.125824658E1,8.775501251E-3,-7.933654225E-1,-1.118352207E0,1.371210181E0
1.126820658E1,9.051428434E-1,-2.303224093E-1,-1.909966096E0,2.126100295E0
1.127816658E1,1.972338053E0,4.872128123E-1,-2.728704633E0,3.401958656E0
1.128812658E1,2.875433201E0,1.284284785E0,-3.481391269E0,4.694421015E0
1.129808558E1,3.823831115E0,2.217772298E0,-4.080308704E0,6.015739147E0
1.130804558E1,5.126717062E0,3.215843478E0,-3.748386830E0,7.118657243E0
1.131800558E1,6.048959211E0,3.612375332E0,-2.991418863E0,7.654263510E0
1.132796558E1,6.198461405E0,4.225504425E0,-2.669480525E0,7.962533372E0
1.133792558E1,5.899203832E0,5.048242750E0,-2.940163340E0,8.302404542E0
1.134788558E1,6.038434807E0,5.190774479E0,-2.992698819E0,8.506649213E0
1.135784458E1,5.926069449E0,4.573944683E0,-2.575525417E0,7.916602822E0
1.136780458E1,4.734289662E0,3.362437853E0,-2.127721961E0,6.184390646E0
1.137776458E1,2.996619962E0,1.926128384E0,-1.788734458E0,3.986135059E0
1.138772458E1,1.220722042E0,1.558587027E-1,-1.883149011E0,2.249600950E0
1.139768458E1,-3.483446565E-1,-1.820349330E0,-1.886568170E0,2.644646506E0
1.140764458E1,-1.689347141E0,-3.401347564E0,-1.337247695E0,4.026324678E0
1.141760358E1,-2.162871914E0,-3.717898278E0,-1.408547473E0,4.526012429E0
1.142756358E1,-2.072550558E0,-2.739630448E0,-1.517389592E0,3.755464283E0
1.143752358E1,-2.671308365E0,-1.646396418E0,-1.173505776E0,3.350167959E0
1.144748358E1,-3.468658080E0,-6.395789731E-1,-6.709957704E-1,3.590387926E0
1.145744358E1,-4.033673651E0,1.067253097E0,-5.387566030E-2,4.172823371E0
1.146740358E1,-4.318380136E0,4.149126340E0,2.117501906E-1,5.992369692E0
1.147736258E1,-3.336145847E0,7.627215101E0,1.974143381E0,8.555788766E0
1.148732258E1,-1.891186593E0,9.924546955E0,4.597216601E0,1.109989277E1
1.149728258E1,-1.315889278E0,9.385228434E0,2.194148670E0,9.727711228E0
1.150724258E1,-1.778548462E0,4.998357815E0,-3.255551335E-1,5.315336454E0
1.151720258E1,-3.978407523E0,-2.200973833E-1,2.385172528E0,4.643836481E0
1.152716158E1,-6.354261051E0,-2.830114941E0,2.280327566E0,7.320251218E0
1.153712158E1,-7.326024438E0,-3.776814238E0,6.198845275E-1,8.265543944E0
1.154708158E1,-6.468685214E0,-4.054306721E0,2.643183550E0,8.078843399E0
1.155704158E1,-5.070508363E0,-4.164240223E0,4.823895611E0,8.143765747E0
1.156700158E1,-4.152004631E0,-3.716875600E0,5.906729783E0,8.120576544E0
1.157696158E1,-3.345868013E0,-2.252905294E0,6.021951506E0,7.248055944E0
1.158692058E1,-2.198069813E0,9.791747332E-2,5.704172877E0,6.113811164E0
1.159688058E1,-7.800726548E-1,2.466364333E0,4.880649855E0,5.523785783E0
1.160684058E1,4.317326760E-1,4.317643095E0,3.469052474E0,5.555426182E0
1.161680058E1,1.717215263E0,5.257009399E0,2.473030744E0,6.058123236E0
1.162676058E1,2.757460948E0,4.837344791E0,1.611639107E0,5.796626270E0
1.163672058E1,2.960908384E0,3.181231470E0,3.143638551E-1,4.357296956E0
1.164667958E1,2.077181261E0,1.089443865E0,-4.648572258E-1,2.391163350E0
1.165663958E1,2.041201589E-1,-1.643178695E-1,-4.920946527E-1,5.575146174E-1
1.166659958E1,-1.312862759E0,-6.044658583E-1,-2.856949568E-3,1.445335864E0
1.167655958E1,-1.767931965E0,-1.129456362E0,6.201288680E-1,2.187650548E0
1.168651958E1,-1.976386957E0,-1.633836014E0,9.880905676E-1,2.748062680E0
1.169647958E1,-1.650906668E0,-2.103134712E0,1.553961879E0,3.092485402E0
1.170643858E1,-1.414559580E0,-2.448715682E0,2.058235112E0,3.497644790E0
1.171639858E1,-1.185069961E0,-2.328780518E0,2.123795264E0,3.367211879E0
1.172635858E1,-6.102565022E-1,-1.801203791E0,1.824716030E0,2.635590387E0
1.173631858E1,-4.419186719E-1,-8.412511951E-1,1.078161077E0,1.437159349E0
1.174627858E1,6.847235709E-2,1.384392625E-1,6.920811224E-1,7.091051918E-1
1.175623858E1,7.679249181E-1,8.300110924E-1,6.071655178E-1,1.283462917E0
1.176619758E1,9.038662501E-1,8.619848371E-1,1.276102191E-1,1.255498477E0
1.177615758E1,7.070675361E-1,3.956769902E-1,-3.250326848E-1,8.730126158E-1
1.178611758E1,4.494780985E-1,-2.323689348E-1,-2.988430059E-1,5.876504275E-1
1.179607758E1,3.318970236E-1,-8.142294574E-1,-3.130704510E-1,9.333479259E-1
1.180603758E1,1.953920200E-1,-1.186749135E0,-4.474008751E-1,1.283245531E0
1.181599758E1,1.682553115E-1,-1.464801196E0,-2.442861815E-1,1.494532747E0
1.182595658E1,-5.551821627E-2,-1.598532280E0,1.778401039E-1,1.609352300E0
1.183591658E1,2.574061275E-2,-1.586651908E0,5.727043676E-1,1.687043908E0
1.184587658E1,1.393288433E-1,-1.543541556E0,6.970722326E-1,1.699365399E0
1.185583658E1,2.217983383E-1,-1.356158760E0,6.120181221E-1,1.504302917E0
1.186579658E1,4.982163951E-1,-9.838583529E-1,2.623826927E-1,1.133596715E0
1.187575658E1,6.093397684E-1,-5.567192495E-1,-2.933390949E-1,8.759446904E-1
1.188571558E1,5.717032878E-1,-1.284393543E-1,-6.477850286E-1,8.734796851E-1
1.189567558E1,6.684870225E-1,1.513382202E-1,-6.277244742E-1,9.294171140E-1
1.190563558E1,8.193864092E-1,2.108394867E-1,-4.335195851E-1,9.506769207E-1
1.191559558E1,9.078778785E-1,-4.663154483E-3,-1.348454176E-1,9.178492654E-1
1.192555558E1,1.025811248E0,-2.314211011E-1,1.661474633E-1,1.064635817E0
1.193551558E1,1.134063090E0,-1.743861902E-1,2.057934858E-1,1.165701761E0
1.194547458E1,1.294567991E0,-2.501321912E-2,1.967984216E-1,1.309679946E0
1.195543458E1,1.549463616E0,-1.492209435E-2,2.477154639E-1,1.569210986E0
1.196539458E1,1.960468205E0,-2.373981249E-1,3.143772306E-1,1.999656594E0
1.197535458E1,2.351221255E0,-5.482442951E-1,4.878928435E-1,2.463098176E0
1.198531458E1,2.310083461E0,-6.329681110E-1,7.802344765E-1,2.519106998E0
1.199527458E1,2.600647395E0,-5.361475754E-1,7.921750756E-1,2.770985825E0
1.200523358E1,2.729707139E0,-3.394887561E-1,5.623758459E-1,2.807636064E0
1.201519358E1,2.657190847E0,9.078971744E-2,3.096976309E-1,2.676717877E0
1.202515358E1,2.348172224E0,7.890782440E-1,2.320835906E-1,2.488055478E0
1.203511358E1,1.791143072E0,1.243285863E0,3.503825574E-1,2.208329952E0
1.204507358E1,1.459559167E0,1.325646819E0,3.499872856E-1,2.002534282E0
1.205503358E1,1.704957160E0,1.405034466E0,5.566593155E-2,2.209999879E0
1.206499258E1,2.395315693E0,1.904735177E0,-3.666498037E-1,3.082204639E0
1.207495258E1,3.287377145E0,2.670656108E0,-7.770693786E-1,4.306168757E0
1.208491258E1,3.851460378E0,2.956980225E0,-1.023479817E0,4.962357306E0
1.209487258E1,4.106832844E0,3.016413079E0,-5.298530477E-1,5.123042858E0
1.210483258E1,4.076165952E0,2.994101273E0,3.896105039E-1,5.072629264E0
1.211479258E1,3.928865819E0,3.140875157E0,6.193025833E-1,5.067999513E0
1.212475158E1,4.155563832E0,3.666718769E0,-7.019933224E-2,5.542424130E0
1.213471158E1,3.992878212E0,4.447548931E0,-1.068754808E0,6.071738198E0
1.214467158E1,2.807110533E0,4.852445810E0,-1.712724455E0,5.861699834E0
1.215463158E1,1.578849968E0,4.411768649E0,-1.714731804E0,4.989666822E0
1.216459158E1,7.821555792E-1,3.289863381E0,-1.755285168E0,3.809986147E0
1.217455158E1,3.885337757E-1,1.889250580E0,-2.570612587E0,3.213763420E0
1.218451058E1,4.569832921E-2,4.476470429E-1,-3.110873678E0,3.143248519E0
1.219447058E1,-1.742359167E-1,-8.855374217E-1,-2.518854788E0,2.675661436E0
1.220443058E1,-2.075942820E-1,-1.800601528E0,-1.464047490E0,2.329956288E0
1.221439058E1,-3.364396524E-2,-1.774438747E0,-7.979554868E-1,1.945892531E0
1.222435058E1,1.697297234E-1,-3.499733984E-2,-5.962136463E-1,6.208894466E-1
1.223431058E1,-1.333086231E-1,2.836071500E0,-4.711522651E-1,2.878030090E0
1.224426958E1,-1.654191341E0,5.443300520E0,-4.392510259E-1,5.706032861E0
1.225422958E1,-4.008443208E0,7.017579135E0,8.543140210E-2,8.082161369E0
1.226418958E1,-5.664532848E0,6.655044163E0,1.349735155E0,8.842981973E0
1.227414958E1,-5.907774680E0,4.589929217E0,2.084819917E0,7.766319976E0
1.228410958E1,-5.421958768E0,2.625396320E0,2.089180770E0,6.376128842E0
1.229406958E1,-4.830267321E0,1.510294288E0,1.856250211E0,5.390559904E0
1.230402833E1,-3.787126388E0,1.010962536E0,1.581332403E0,4.226698913E0
1.231398833E1,-2.332655907E0,9.721288383E-1,1.129363976E0,2.767992241E0
1.232394833E1,-1.067106770E0,9.093747658E-1,9.235185957E-1,1.678858517E0
1.233390833E1,-1.144380502E-1,9.305311614E-1,7.915080544E-1,1.226975676E0
1.234386833E1,7.654144160E-1,7.274643785E-1,6.271489620E-1,1.228161012E0
1.235382833E1,1.520864007E0,3.789299798E-1,6.051116833E-1,1.680111725E0
1.236378733E1,1.709122716E0,-2.578826755E-1,1.152076608E0,2.077229993E0
1.237374733E1,1.142578098E0,-7.414199281E-1,1.810099161E0,2.265313928E0
1.238370733E1,3.459847203E-1,-7.489306766E-1,1.038804346E0,1.326543273E0
1.239366733E1,-3.434005433E-1,-6.853843063E-1,2.642321670E-1,8.108601720E-1
1.240362733E1,-1.040156807E0,-7.696005839E-1,4.474549618E-1,1.369097215E0
1.241358733E1,-1.587438066E0,-9.984530032E-1,7.299254715E-1,2.012376507E0
1.242354633E1,-2.398039618E0,-1.351037183E0,1.047650306E0,2.945074981E0
1.243350633E1,-2.888021087E0,-1.858555037E0,1.244280767E0,3.652824558E0
1.244346633E1,-2.839278405E0,-2.537418528E0,1.650372232E0,4.150147365E0
1.245342633E1,-2.944057001E0,-3.117804383E0,2.173424384E0,4.807488882E0
1.246338633E1,-3.211287620E0,-3.403255511E0,2.340381102E0,5.231816124E0
1.247334633E1,-3.584905112E0,-3.519865948E0,2.413739100E0,5.573790218E0
1.248330533E1,-4.113879324E0,-3.607629731E0,2.512930389E0,6.021114059E0
1.249326533E1,-4.607656805E0,-3.829616350E0,2.659131538E0,6.554955618E0
1.250322533E1,-5.126769687E0,-4.346557576E0,2.789295821E0,7.277121777E0
1.251318533E1,-5.401680039E0,-4.830948522E0,2.633468693E0,7.710471336E0
1.252314533E1,-5.241212561E0,-4.922163917E0,2.229250090E0,7.527786042E0
1.253310533E1,-4.816193950E0,-4.737072644E0,1.783471233E0,6.986869903E0
1.254306533E1,-4.150852145E0,-4.244490919E0,1.332542148E0,6.084483977E0
1.255302433E1,-3.282037760E0,-3.452969123E0,7.820086679E-1,4.827660425E0
1.256298433E1,-2.172496431E0,-2.626244166E0,2.345496538E-1,3.416418110E0
1.257294433E1,-1.137238128E0,-1.863609955E0,-2.560791019E-1,2.198164946E0
1.258290433E1,-4.377140853E-1,-1.191370774E0,-8.021137342E-1,1.501447430E0
1.259286433E1,3.672756019E-1,-8.004510784E-1,-1.291846696E0,1.563483669E0
1.260282433E1,1.059122836E0,-8.144510669E-1,-1.699867159E0,2.162086973E0
1.261278333E1,1.723191117E0,-5.700935858E-1,-2.027835146E0,2.721490346E0
1.262274333E1,2.115804751E0,-1.681191444E-1,-2.431295950E0,3.227397370E0
1.263270333E1,2.630294825E0,5.690942967E-1,-2.888924774E0,3.948190159E0
1.264266333E1,3.292977316E0,1.689646518E0,-3.238323976E0,4.917860016E0
1.265262333E1,3.946402496E0,2.897528075E0,-3.158928143E0,5.826541737E0
1.266258333E1,4.322516749E0,4.267244189E0,-3.024664085E0,6.785434167E0
1.267254233E1,4.738377743E0,5.635496745E0,-3.410196741E0,8.114215242E0
1.268250233E1,5.820711393E0,6.001359951E0,-3.622322907E0,9.111433786E0
1.269246233E1,6.802747169E0,5.509375811E0,-3.034908407E0,9.265055851E0
1.270242233E1,6.312997250E0,4.229733131E0,-2.216708690E0,7.915704268E0
1.271238233E1,4.683499577E0,2.289493661E0,-2.048193397E0,5.601075406E0
1.272234233E1,3.174533192E0,2.134607935E-1,-2.320459053E0,3.937988918E0
1.273230133E1,1.684238721E0,-1.770835692E0,-2.289633409E0,3.348871492E0
1.274226133E1,-3.602662522E-1,-2.976115238E0,-1.774617964E0,3.483722521E0
1.275222133E1,-1.814063573E0,-2.747111376E0,-1.358220488E0,3.561209128E0
1.276218133E1,-1.807167951E0,-1.494818462E0,-1.488469555E0,2.777747263E0
1.277214133E1,-2.192179620E0,2.011389560E-1,-1.751091107E0,2.812903914E0
1.278210133E1,-3.805350697E0,1.830267962E0,-1.332755571E0,4.427958012E0
1.279206033E1,-5.445651101E0,3.163386353E0,-6.877752328E-1,6.335231953E0
1.280202033E1,-6.196882657E0,5.540359622E0,-4.791208506E-1,8.326253431E0
1.281198033E1,-4.526559432E0,9.087926170E0,2.946762800E-1,1.015711457E1
1.282194033E1,-1.280337037E0,1.189335241E1,3.956802646E0,1.259949926E1
1.283190033E1,7.376683545E-1,1.150822088E1,4.764045850E0,1.247715653E1
1.284186033E1,-1.374787989E0,5.772479466E0,1.988729260E0,6.258322879E0
1.285182033E1,-5.649733545E0,-1.557101249E0,2.782459549E0,6.487382721E0
1.286177933E1,-8.074510726E0,-4.856576284E0,1.518753455E0,9.544143163E0
1.287173933E1,-8.770646308E0,-5.958233812E0,-6.851416469E-2,1.060327690E1
1.288169933E1,-7.860506142E0,-6.028027933E0,1.739306921E0,1.005732898E1
1.289165933E1,-6.319719209E0,-5.644780954E0,4.128704939E0,9.425953923E0
1.290161933E1,-5.052943912E0,-5.115697399E0,5.760678030E0,9.213469131E0
1.291157933E1,-4.232323155E0,-3.262175646E0,6.357284646E0,8.304782797E0
1.292153833E1,-3.457356581E0,-3.675998300E-1,6.139300447E0,7.055455629E0
1.293149833E1,-2.048089901E0,2.359835665E0,5.443478276E0,6.276539839E0
1.294145833E1,-5.824738955E-1,4.434068760E0,4.278783084E0,6.189363965E0
1.295141833E1,9.322919042E-1,5.777208109E0,3.700939306E0,6.924034480E0
1.296137833E1,2.547586836E0,6.250405145E0,3.036567847E0,7.401250398E0
1.297133833E1,3.817375204E0,5.106784489E0,1.412932885E0,6.530542137E0
1.298129733E1,3.836446483E0,2.451945684E0,-3.790749177E-1,4.568813527E0
1.299125733E1,2.560900946E0,-2.554899949E-1,-1.073434115E0,2.788503110E0
1.300121733E1,7.383802530E-1,-1.421549342E0,-5.994986486E-1,1.710381992E0
1.301117733E1,-2.202460487E-1,-1.791443034E0,4.670057852E-2,1.805535215E0
1.302113733E1,-6.535738452E-1,-2.232804905E0,5.844619854E-1,2.398785594E0
1.303109733E1,-8.347999620E-1,-2.514184617E0,1.025765347E0,2.840811471E0
1.304105633E1,-7.073968805E-1,-2.523331416E0,1.252482948E0,2.904535302E0
1.305101633E1,-4.170390616E-1,-2.063651388E0,1.567211670E0,2.624639223E0
1.306097633E1,4.115900414E-1,-1.409676570E0,2.044511697E0,2.517264880E0
1.307093633E1,7.410230483E-1,-5.465503567E-1,1.758191088E0,1.984708632E0
1.308089633E1,8.121659750E-1,2.620441389E-1,8.355951834E-1,1.194361759E0
1.309085633E1,1.020866404E0,7.127492756E-1,2.516512978E-1,1.270239395E0
1.310081633E1,1.165143965E0,9.032211560E-1,2.380050659E-2,1.474427136E0
1.311077533E1,8.725814536E-1,8.109246111E-1,-1.222547543E-1,1.197473734E0
1.312073533E1,4.864335977E-1,5.011765480E-1,-3.117378706E-1,7.648372881E-1
1.313069533E1,1.263552605E-1,-7.382109761E-3,-3.544640966E-1,3.763840368E-1
1.314065533E1,-1.577890147E-1,-5.459609574E-1,-4.081444599E-1,6.996803844E-1
1.315061533E1,-4.929351899E-1,-7.797952044E-1,-3.661374414E-1,9.925332681E-1
1.316057533E1,-7.866564003E-1,-1.154808719E0,-2.294085260E-1,1.415994259E0
1.317053433E1,-7.853068630E-1,-1.440469177E0,-6.541868526E-2,1.641931157E0
1.318049433E1,-6.755543328E-1,-1.496170338E0,2.427301643E-1,1.659462946E0
1.319045433E1,-5.939564384E-1,-1.531284623E0,4.484626564E-1,1.702567356E0
1.320041433E1,-2.630449630E-1,-1.543447416E0,2.296446439E-1,1.582453551E0
1.321037433E1,7.666481785E-2,-1.277282159E0,-8.119684853E-2,1.282154490E0
1.322033433E1,2.495930779E-1,-7.235601926E-1,-2.815025032E-1,8.155241971E-1
1.323029333E1,2.904033906E-1,-1.556534654E-1,-4.548070315E-1,5.616151409E-1
1.324025333E1,4.716033412E-1,1.706995207E-1,-5.967506035E-1,7.795250609E-1
1.325021333E1,8.112204802E-1,4.116387194E-1,-6.962696292E-1,1.145563835E0
1.326017333E1,1.001445023E0,5.773540735E-1,-4.401509124E-1,1.236916605E0
1.327013333E1,1.095765290E0,3.438075095E-1,-9.452608824E-2,1.152319554E0
1.328009333E1,1.326148218E0,-3.183785534E-1,5.475895531E-2,1.364929501E0
1.329005333E1,1.614361863E0,-7.739304471E-1,7.624710739E-2,1.791911321E0
1.330001246E1,1.786856771E0,-7.526880974E-1,6.216759682E-2,1.939912705E0
1.330997246E1,1.883322965E0,-5.375830668E-1,-7.492410176E-2,1.959978205E0
1.331993246E1,2.101006325E0,-3.737329745E-1,-2.514536619E-1,2.148751465E0
1.332989246E1,2.391947697E0,-2.801763546E-1,-2.993131220E-1,2.426829396E0
1.333985246E1,2.535910531E0,-2.707062042E-1,1.264917929E-1,2.553453396E0
1.334981246E1,2.946265495E0,-8.016240299E-2,6.635145503E-1,3.021118656E0
1.335977146E1,3.673435173E0,2.966333431E-1,8.099095345E-1,3.773336821E0
1.336973146E1,4.152296992E0,6.022404081E-1,5.442968398E-1,4.230900953E0
1.337969146E1,4.177010834E0,7.765956080E-1,2.463443649E-1,4.255726235E0
1.338965146E1,3.789684545E0,6.767497230E-1,2.568412864E-1,3.858194731E0
1.339961146E1,3.457984865E0,5.006543916E-1,2.565733378E-1,3.503447448E0
1.340957146E1,3.548929826E0,7.308633649E-1,-8.090105250E-2,3.624308092E0
1.341953146E1,3.974098710E0,1.236770310E0,-7.369608414E-1,4.226839557E0
1.342949046E1,4.434678332E0,1.932032903E0,-1.267273626E0,5.000510523E0
1.343945046E1,4.630062166E0,2.410122889E0,-1.192466688E0,5.354264170E0
1.344941046E1,4.646215976E0,2.544703574E0,-5.218523756E-1,5.323078910E0
1.345937046E1,4.588981675E0,2.659427699E0,-8.233698249E-2,5.304534653E0
1.346933046E1,4.427829488E0,3.174634057E0,-1.310559833E-1,5.449876241E0
1.347929046E1,4.226495528E0,3.732550231E0,-1.611323795E-1,5.641024669E0
1.348924946E1,3.874403683E0,4.042834484E0,1.310307672E-1,5.601132352E0
1.349920946E1,2.433331365E0,4.041338766E0,-4.779777930E-1,4.741516986E0
1.350916946E1,1.235666356E0,3.380617431E0,-1.767451909E0,4.009904214E0
1.351912946E1,1.697768666E-1,1.820997786E0,-2.327947290E0,2.960438431E0
1.352908946E1,-9.412698653E-1,2.825187492E-1,-2.271145098E0,2.474652675E0
1.353904946E1,-1.888072074E0,-4.425991416E-2,-2.209818331E0,2.906900781E0
1.354900946E1,-2.110509805E0,9.763844419E-1,-2.447824566E0,3.376303204E0
1.355896846E1,-2.118053883E0,3.118711286E0,-2.327878293E0,4.430748208E0
1.356892846E1,-2.932597628E0,5.996038401E0,-1.921842960E0,6.945940232E0
1.357888846E1,-4.301591903E0,8.572601699E0,-7.803729824E-1,9.623002378E0
1.358884846E1,-5.742863318E0,9.352413275E0,1.054305461E0,1.102541034E1
1.359880846E1,-6.859264601E0,7.325856038E0,2.787529085E0,1.041575710E1
1.360876846E1,-6.608192763E0,3.501527910E0,3.188897170E0,8.130066079E0
1.361872746E1,-4.876140482E0,2.658442444E-1,2.380655407E0,5.432765349E0
1.362868746E1,-3.496242320E0,-1.068028437E0,1.488817172E0,3.947273955E0
1.363864746E1,-2.056010978E0,-1.030001655E0,1.029325279E0,2.519443407E0
1.364860746E1,-7.173060107E-1,-6.738272846E-2,6.825454831E-1,9.924397622E-1
1.365856746E1,3.157364890E-1,1.094970068E0,1.755429156E-1,1.153023979E0
1.366852746E1,1.184693692E0,1.879068239E0,1.400767753E-1,2.225762362E0
1.367848746E1,1.832922013E0,1.777005090E0,3.235055383E-1,2.573325869E0
1.368844646E1,1.339971913E0,1.174648322E0,7.236024387E-1,1.923258666E0
1.369840646E1,1.599492101E0,4.055710638E-1,1.744118887E0,2.401002616E0
1.370836646E1,9.969222021E-1,-3.069940245E-1,2.029624686E0,2.281989390E0
1.371832646E1,3.040405959E-2,-7.344424456E-1,2.234658180E0,2.352451337E0
1.372828646E1,-5.540976503E-1,-1.300306156E0,2.040811287E0,2.482484847E0
1.373824646E1,-1.043609003E0,-1.934534342E0,1.649693663E0,2.748278016E0
1.374820546E1,-1.652227846E0,-2.576991314E0,1.611782363E0,3.459564059E0
1.375816546E1,-2.378633294E0,-3.077973150E0,1.752500578E0,4.266505987E0
1.376812546E1,-3.000288212E0,-3.634671934E0,1.803762533E0,5.046397597E0
1.377808546E1,-3.600506361E0,-4.031468081E0,1.897240508E0,5.728516605E0
1.378804546E1,-3.956727509E0,-4.162828705E0,2.229301546E0,6.160732163E0
1.379800546E1,-4.209757580E0,-3.984086339E0,2.556666100E0,6.334946282E0
1.380796546E1,-4.431771096E0,-3.696412684E0,2.702562317E0,6.372433198E0
1.381792446E1,-4.620320997E0,-3.353743628E0,2.599872346E0,6.273300459E0
1.382788446E1,-4.757106667E0,-3.163545982E0,2.461813737E0,6.220820999E0
1.383784446E1,-4.800462309E0,-3.224335974E0,2.454785969E0,6.282257159E0
1.384780446E1,-4.620661890E0,-3.455002785E0,2.494754027E0,6.285806090E0
1.385776446E1,-4.222575554E0,-3.699812840E0,2.413811313E0,6.111075553E0
1.386772446E1,-3.714753353E0,-3.865228232E0,2.158942000E0,5.779308983E0
1.387768346E1,-3.176105801E0,-3.771360540E0,1.682356794E0,5.209715229E0
1.388764346E1,-2.463631637E0,-3.207791862E0,1.102667928E0,4.192288878E0
1.389760346E1,-1.739819722E0,-2.599606590E0,4.375991875E-1,3.158547156E0
1.390756346E1,-1.101046495E0,-2.294697683E0,-7.713646889E-3,2.545191612E0
1.391752346E1,-7.519247434E-1,-2.349127659E0,-7.534374180E-1,2.579042365E0
1.392748346E1,-7.332057595E-2,-2.095360839E0,-1.488814541E0,2.571474614E0
1.393744346E1,7.415213773E-1,-1.542892515E0,-2.401254856E0,2.948965267E0
1.394740246E1,1.635796878E0,-7.483740216E-1,-2.998408917E0,3.496619959E0
1.395736246E1,2.407665305E0,2.004244262E-1,-3.396196167E0,4.167873628E0
1.396732246E1,3.466468298E0,1.611205536E0,-3.591607483E0,5.245191136E0
1.397728246E1,4.993479483E0,3.480867358E0,-3.201565747E0,6.877593921E0
1.398724246E1,5.978613113E0,5.442249191E0,-2.993128881E0,8.620946092E0
1.399720246E1,6.323811091E0,7.191888726E0,-3.839928499E0,1.031789228E1
1.400716146E1,6.913041444E0,7.546484349E0,-4.186478938E0,1.105740358E1
1.401712146E1,7.216223084E0,6.507966224E0,-3.459525021E0,1.031483462E1
1.402708146E1,5.964808422E0,4.958378647E0,-2.894812628E0,8.279154454E0
1.403704146E1,3.870373490E0,3.143369579E0,-3.049524399E0,5.844669565E0
1.404700146E1,1.738975968E0,1.231684987E0,-3.147608811E0,3.801121749E0
1.405696146E1,-1.168715152E-1,-5.873031110E-1,-2.833004927E0,2.895600251E0
1.406692146E1,-1.473332283E0,-2.154355152E0,-2.278729960E0,3.464760362E0
1.407688046E1,-2.140063387E0,-2.509558885E0,-1.874685897E0,3.793705880E0
1.408684046E1,-2.718502119E0,-1.420347154E0,-1.261992860E0,3.316664859E0
1.409680046E1,-3.479744108E0,-4.046799481E-2,-1.758959413E-2,3.480023867E0
1.410676046E1,-4.069681390E0,2.097330181E0,1.277309203E0,4.753169396E0
1.411672046E1,-4.656070289E0,5.451795940E0,2.209569240E0,7.502217387E0
1.412668046E1,-5.290319817E0,9.326145244E0,2.390342928E0,1.098536336E1
1.413664046E1,-3.691729065E0,1.126368798E1,3.149131133E0,1.226444280E1
1.414659946E1,-1.737839270E-1,8.741324276E0,4.391019219E0,9.783762095E0
1.415655946E1,5.685744792E-2,3.295370289E0,5.827425751E-1,3.346981778E0
1.416651946E1,-3.570961257E0,-1.424279991E0,-1.352588450E0,4.075516324E0
1.417647946E1,-6.928143632E0,-4.887682301E0,3.211232364E-1,8.484794199E0
1.418643946E1,-7.916775652E0,-6.218126761E0,-6.362179935E-1,1.008688309E1
1.419639946E1,-7.312988071E0,-5.963348372E0,8.908393845E-1,9.478128145E0
1.420635946E1,-6.181330233E0,-5.358181432E0,3.819310048E0,9.028071829E0
1.421631846E1,-4.825694506E0,-4.615962775E0,5.710975528E0,8.786903965E0
1.422627846E1,-4.026611969E0,-2.668334763E0,7.254715304E0,8.715762072E0
1.423623846E1,-3.778171377E0,5.683060920E-1,8.075388393E0,8.933613405E0
1.424619846E1,-2.694869720E0,3.856721118E0,7.228799275E0,8.625088959E0
1.425615846E1,-8.219319946E-1,5.998060368E0,4.836103427E0,7.748560946E0
1.426611846E1,1.218075008E0,6.565806296E0,3.132304308E0,7.375964298E0
1.427607746E1,2.544453606E0,6.060327367E0,1.568830471E0,6.757443377E0
1.428603746E1,3.083543500E0,4.211310893E0,-2.333974600E-1,5.224734857E0
1.429599746E1,2.817912387E0,1.487501256E0,-1.977649956E0,3.750251932E0
1.430595783E1,1.391120139E0,-3.569029337E-1,-1.967485156E0,2.435896711E0
1.431591783E1,-7.377584016E-1,-1.044832533E0,-9.004385392E-1,1.564209719E0
1.432587783E1,-1.762737299E0,-1.419917384E0,-5.540821552E-3,2.263501460E0
1.433583783E1,-2.135934083E0,-1.737819389E0,4.789886669E-1,2.794934844E0
1.434579683E1,-2.447794746E0,-1.970553775E0,9.268140864E-1,3.276242611E0
1.435575683E1,-2.157480635E0,-2.157357112E0,1.685879742E0,3.485843213E0
1.436571683E1,-1.716927726E0,-2.099845653E0,2.103984897E0,3.432775121E0
1.437567683E1,-1.082656563E0,-1.616540535E0,2.056331259E0,2.830873855E0
1.438563683E1,-4.427030759E-1,-1.111883140E0,1.818086457E0,2.176627781E0
1.439559683E1,-3.724123809E-1,-5.463076973E-1,1.501576674E0,1.640693631E0
1.440555683E1,7.835736752E-2,-1.083851588E-1,1.333041208E0,1.339733586E0
1.441551583E1,9.205645823E-1,3.308980268E-1,9.093098617E-1,1.335581176E0
1.442547583E1,1.181274533E0,5.716758424E-1,5.914827007E-1,1.439470241E0
1.443543583E1,1.097047292E0,2.524511969E-1,2.156266022E-1,1.146184627E0
1.444539583E1,1.150430470E0,-2.250739485E-1,-4.498445727E-2,1.173103640E0
1.445535583E1,1.103183652E0,-6.126116145E-1,-1.634343553E-1,1.272406362E0
1.446531583E1,1.129683453E0,-9.130900866E-1,-5.358976800E-2,1.453543970E0
1.447527583E1,8.360173523E-1,-1.243493439E0,1.842364097E-1,1.509683411E0
1.448523483E1,6.561906204E-1,-1.436593058E0,1.784798259E-1,1.589415236E0
1.449519483E1,5.913654640E-1,-1.447723818E0,1.007095188E-1,1.567086396E0
1.450515483E1,5.665244089E-1,-1.466919642E0,-5.790212609E-2,1.573580566E0
1.451511483E1,5.512120494E-1,-1.375834640E0,-3.979117960E-1,1.534630079E0
1.452507483E1,6.026230718E-1,-1.108625656E0,-8.582520477E-1,1.526041280E0
1.453503483E1,6.711442897E-1,-7.665459985E-1,-1.332217189E0,1.677149386E0
1.454499383E1,7.489365238E-1,-4.578451717E-1,-1.406518489E0,1.657957291E0
1.455495383E1,8.579043576E-1,-1.234996265E-1,-9.896565250E-1,1.315550106E0
1.456491383E1,8.894731826E-1,1.596617317E-1,-4.150646031E-1,9.944511229E-1
1.457487383E1,9.754067874E-1,1.137172347E-1,-1.605068006E-2,9.821444062E-1
1.458483383E1,1.159877963E0,1.054942954E-1,6.354446992E-2,1.166397803E0
1.459479383E1,1.203982049E0,3.242175829E-1,3.578963757E-2,1.247385551E0
1.460475383E1,1.171958018E0,3.710052484E-1,1.039436138E-1,1.233667202E0
1.461471283E1,1.351684763E0,1.695926428E-2,1.806527974E-1,1.363808912E0
1.462467283E1,1.573897376E0,-4.132806176E-1,7.791312531E-2,1.629117637E0
1.463463283E1,1.655878263E0,-6.771987891E-1,-1.134313059E-1,1.792595237E0
1.464459283E1,1.747838008E0,-5.900290829E-1,-1.769643737E-1,1.853210299E0
1.465455283E1,1.843872386E0,-2.554841477E-1,-3.122668974E-1,1.887497852E0
1.466451283E1,2.006777861E0,3.521754599E-1,-2.608304031E-1,2.054073376E0
1.467447283E1,2.242323295E0,1.114032576E0,3.480701298E-3,2.503815979E0
1.468443183E1,2.432141165E0,1.720037422E0,8.247833893E-2,2.980040613E0
1.469439183E1,2.609506511E0,1.889491485E0,-1.888225271E-1,3.227283107E0
1.470435183E1,2.616106848E0,1.634421321E0,-6.241056325E-1,3.147198109E0
1.471431183E1,2.475923069E0,1.079851508E0,-7.337729394E-1,2.799052884E0
1.472427183E1,2.550907762E0,6.813485581E-1,-6.392771105E-1,2.716623178E0
1.473423183E1,2.854988412E0,8.383878136E-1,-8.441169155E-1,3.092957537E0
1.474419183E1,3.331043275E0,1.329935752E0,-1.379936024E0,3.843019884E0
1.475415083E1,3.917384226E0,1.945818298E0,-1.681912991E0,4.686250029E0
1.476411083E1,3.941323020E0,2.592767687E0,-1.150782473E0,4.856003678E0
1.477407083E1,3.793254855E0,2.887563835E0,-3.557346600E-1,4.780518219E0
1.478403083E1,3.974103972E0,2.744771905E0,-5.047323860E-1,4.856133233E0
1.479399083E1,4.151161463E0,2.872246469E0,-8.764393003E-1,5.123483885E0
1.480395083E1,4.073144111E0,3.133501233E0,-6.867040960E-1,5.184678914E0
1.481391083E1,3.883305484E0,3.337643319E0,-3.070110545E-1,5.129734905E0
1.482386983E1,3.685672811E0,3.325309787E0,-7.705525106E-1,5.023506785E0
1.483382983E1,2.894195747E0,3.118443484E0,-2.020539867E0,4.709951182E0
1.484378983E1,1.096559634E0,2.201655618E0,-2.539972592E0,3.535702371E0
1.485374983E1,-5.509246588E-1,1.218108337E0,-2.200932902E0,2.575152722E0
1.486370983E1,-1.603910549E0,1.395967188E0,-2.213213809E0,3.069131605E0
1.487366983E1,-2.160111151E0,2.671341986E0,-2.017713908E0,3.984133231E0
1.488362983E1,-2.852613565E0,4.241617012E0,-1.352138214E0,5.287437638E0
1.489358883E1,-3.396643187E0,5.817420580E0,-1.539337993E-2,6.736453377E0
1.490354883E1,-3.715439524E0,6.753054607E0,1.910268981E0,7.940866764E0
1.491350883E1,-4.231654526E0,6.031273137E0,3.215346465E0,8.038756656E0
1.492346883E1,-4.585846106E0,3.684439341E0,3.125347291E0,6.661296680E0
1.493342883E1,-3.871181282E0,9.916754955E-1,1.973135905E0,4.456762290E0
1.494338883E1,-2.373637433E0,-6.930049825E-1,9.107493000E-1,2.635123310E0
1.495334883E1,-1.370068993E0,-1.430164629E0,3.465117006E-1,2.010604454E0
1.496330783E1,-9.932245691E-1,-9.591585445E-1,-6.560459018E-2,1.382311152E0
1.497326783E1,-3.481927751E-1,5.296483952E-1,-1.857838753E-1,6.605159192E-1
1.498322783E1,1.759680082E-1,1.387393416E0,-5.250799656E-3,1.398518074E0
1.499318783E1,3.137671468E-1,1.632738492E0,2.424235144E-1,1.680194621E0
1.500314783E1,1.208734958E-1,1.562084831E0,1.043004547E0,1.882173719E0
1.501310783E1,1.423140661E-1,9.566208529E-1,1.837894193E0,2.076832158E0
1.502306783E1,-2.432725301E-1,5.196648592E-1,2.104165138E0,2.180996106E0
1.503302683E1,-7.913504720E-1,6.352064252E-2,1.757264889E0,1.928276519E0
1.504298683E1,-1.113119826E0,-4.765433979E-1,1.690198495E0,2.079158558E0
1.505294683E1,-1.622148307E0,-9.655027735E-1,1.631839775E0,2.495287917E0
1.506290683E1,-2.297162869E0,-1.445172678E0,1.570329405E0,3.135508851E0
1.507286683E1,-2.893519809E0,-1.966916222E0,1.501517032E0,3.807331048E0
1.508282683E1,-3.035815310E0,-2.406661922E0,1.660121588E0,4.214759767E0
1.509278683E1,-3.625397373E0,-2.665801749E0,1.672778763E0,4.800853452E0
1.510274583E1,-3.610428209E0,-2.808214779E0,1.949805515E0,4.972223209E0
1.511270583E1,-3.698135274E0,-2.955238924E0,2.210493100E0,5.224549870E0
1.512266583E1,-4.138187076E0,-3.194681236E0,2.279876161E0,5.703368810E0
1.513262583E1,-4.455348239E0,-3.400627187E0,2.392325427E0,6.094063845E0
1.514258583E1,-4.565679059E0,-3.525873377E0,2.492900459E0,6.284247055E0
1.515254583E1,-4.681107774E0,-3.587446897E0,2.348090656E0,6.347918947E0
1.516250583E1,-4.702824917E0,-3.579985265E0,2.052722358E0,6.256718451E0
1.517246483E1,-4.604739044E0,-3.574723940E0,1.772282878E0,6.092885976E0
1.518242483E1,-4.393605443E0,-3.709619790E0,1.440261894E0,5.927849703E0
1.519238483E1,-4.063450597E0,-3.933753507E0,1.090274169E0,5.759752179E0
1.520234483E1,-3.417985524E0,-3.846047026E0,7.813455936E-1,5.204344695E0
1.521230483E1,-2.515359030E0,-3.611992339E0,5.026368901E-1,4.430142611E0
1.522226483E1,-1.662112564E0,-3.501120944E0,3.619213066E-1,3.892486747E0
1.523222483E1,-1.068058258E0,-3.109737564E0,1.400057316E-1,3.291020779E0
1.524218383E1,-3.434853280E-1,-2.303516454E0,-3.144889855E-1,2.350122027E0
1.525214383E1,6.082899374E-1,-1.264391972E0,-1.492629995E0,2.048572188E0
1.526210383E1,1.680514337E0,7.815856218E-2,-2.614306490E0,3.108831874E0
1.527206383E1,2.746716981E0,1.614080611E0,-3.700246704E0,4.882779543E0
1.528202383E1,4.227045751E0,3.181974651E0,-4.286440305E0,6.809291369E0
1.529198383E1,5.899238330E0,4.286126018E0,-3.689036422E0,8.171956855E0
1.530194308E1,6.779907360E0,5.083762831E0,-2.733804867E0,8.904239293E0
1.531190208E1,6.489505395E0,5.879899834E0,-2.937707802E0,9.236721792E0
1.532186208E1,6.576407298E0,6.058523501E0,-3.729915476E0,9.688503983E0
1.533182208E1,6.870442139E0,4.794603984E0,-3.980286233E0,9.275445059E0
1.534178208E1,6.064999877E0,3.303311393E0,-4.066332397E0,8.014433781E0
1.535174208E1,3.890444934E0,2.081163214E0,-4.060679017E0,5.996325224E0
1.536170208E1,1.739724997E0,7.892712021E-1,-3.472278676E0,3.963118885E0
1.537166208E1,-9.987336695E-2,-3.797754872E-1,-2.420543797E0,2.452190120E0
1.538162208E1,-1.425907272E0,-1.449370394E0,-1.208111499E0,2.365041116E0
1.539158108E1,-1.665433783E0,-1.949184541E0,-4.027515364E-1,2.595226167E0
1.540154108E1,-1.671620722E0,-1.325122324E0,-3.571309751E-1,2.162823974E0
1.541150108E1,-2.435635168E0,-7.385360813E-1,-6.875594705E-2,2.546071797E0
1.542146108E1,-3.263841225E0,1.055480897E-1,6.786515298E-1,3.335321250E0
1.543142108E1,-4.334569615E0,2.176507913E0,1.025729095E0,4.957600288E0
1.544138108E1,-5.230910937E0,6.444250284E0,8.552745724E-1,8.343996977E0
1.545134108E1,-4.789224545E0,1.198658627E1,1.125293144E0,1.295689804E1
1.546130008E1,-1.572877914E0,1.338440410E1,3.167531736E0,1.384375221E1
1.547126008E1,1.063609404E0,7.278048034E0,4.536571620E0,8.641859187E0
1.548122008E1,-1.411261750E0,6.939417064E-2,1.645295826E0,2.168749325E0
1.549118008E1,-5.583958216E0,-5.070424163E0,1.172601796E0,7.633137332E0
1.550114008E1,-7.845868222E0,-7.096667989E0,4.079730999E-1,1.058710474E1
1.551110008E1,-8.449006763E0,-7.190858447E0,-1.622298581E0,1.121276117E1
1.552106008E1,-7.840084741E0,-6.759452046E0,6.060092309E-1,1.036939573E1
1.553101908E1,-6.468336135E0,-5.884065975E0,3.823424441E0,9.543593621E0
1.554097908E1,-4.721352990E0,-3.777236992E0,5.668753953E0,8.288152070E0
1.555093908E1,-3.414696465E0,-1.289182413E-1,6.545062129E0,7.383400988E0
1.556089908E1,-2.515549942E0,3.814134677E0,6.357246054E0,7.828805288E0
1.557085908E1,-1.669977069E0,6.521708350E0,5.217100983E0,8.517020951E0
1.558081908E1,-4.950135827E-2,7.719300562E0,4.542399247E0,8.956754014E0
1.559077908E1,1.867481689E0,7.780775263E0,4.030398041E0,8.959467614E0
1.560073808E1,3.672615101E0,5.585103101E0,3.256776619E0,7.435594951E0
1.561069808E1,3.963685403E0,1.639069272E0,1.424185266E0,4.519474940E0
1.562065808E1,2.809277803E0,-1.364088169E0,-7.139157220E-1,3.203506511E0
1.563061808E1,8.772755983E-1,-2.099323497E0,-2.246800801E0,3.197637481E0
1.564057808E1,-1.343227204E0,-1.993801135E0,-1.950579686E0,3.095846152E0
1.565053808E1,-2.849900165E0,-2.269406721E0,-5.802496513E-1,3.689014431E0
1.566049808E1,-2.784780893E0,-2.473169907E0,2.350136487E-1,3.731863533E0
1.567045808E1,-2.455078037E0,-2.434550802E0,9.134052515E-1,3.576136873E0
1.568041708E1,-2.348370006E0,-2.094093747E0,1.593395501E0,3.526893751E0
1.569037708E1,-2.046553253E0,-1.476654671E0,2.083662314E0,3.272695812E0
1.570033708E1,-1.900104182E0,-7.742491204E-1,2.089121275E0,2.928188058E0
1.571029708E1,-1.194804113E0,-3.011052936E-1,1.964485534E0,2.318927485E0
1.572025708E1,-5.875561492E-1,5.508539075E-1,1.099812148E0,1.363176077E0
1.573021708E1,3.665020153E-2,9.713318628E-1,6.521697825E-1,1.170535882E0
1.574017708E1,1.019391882E-1,7.090766394E-1,1.027296149E0,1.252405148E0
1.575013608E1,5.031403354E-1,2.168024772E-1,1.028796544E0,1.165579616E0
1.576009608E1,8.645407281E-1,-2.951159906E-1,4.466477903E-1,1.016866937E0
1.577005608E1,8.792443559E-1,-5.906097114E-1,7.211955786E-3,1.059217863E0
1.578001608E1,7.770718637E-1,-8.169951904E-1,-2.050793946E-2,1.127715566E0
1.578997608E1,6.878722966E-1,-8.782009202E-1,5.608649254E-2,1.116938157E0
1.579993608E1,7.596619984E-1,-8.464458615E-1,1.526034846E-1,1.147538571E0
1.580989608E1,1.078815381E0,-9.262363815E-1,2.653541746E-1,1.446433303E0
1.581985508E1,1.457588363E0,-9.703811055E-1,1.674923229E-1,1.759050029E0
1.582981508E1,1.577606557E0,-9.977688789E-1,-1.554055434E-1,1.873108664E0
1.583977508E1,1.621360103E0,-1.006101746E0,-3.543600527E-1,1.940778285E0
1.584973508E1,1.752370185E0,-7.779445606E-1,-3.756467682E-1,1.953742434E0
1.585969508E1,1.740712591E0,-2.674878967E-1,-3.597318897E-1,1.797508591E0
1.586965508E1,1.607866191E0,2.095700562E-1,-3.111361921E-1,1.651047857E0
1.587961508E1,1.452501285E0,3.851344603E-1,-1.857509116E-1,1.514130753E0
1.588957508E1,1.287523558E0,2.454889172E-1,-8.201370455E-2,1.313281374E0
1.589953408E1,1.416320177E0,1.187388235E-1,-2.531347364E-2,1.421514166E0
1.590949408E1,1.828795340E0,1.487689537E-1,-8.298353836E-2,1.836711971E0
1.591945408E1,2.156227430E0,1.269494838E-1,-2.521202445E-1,2.174625834E0
1.592941408E1,2.309633811E0,3.381795645E-2,-2.751442409E-1,2.326210727E0
1.593937408E1,2.374306647E0,-9.957457423E-2,-3.115064670E-1,2.396723478E0
1.594933408E1,2.163451373E0,-3.523929763E-1,-2.038989879E-1,2.201426231E0
1.595929408E1,1.721008644E0,-4.932839763E-1,1.812309408E-1,1.799456720E0
1.596925308E1,1.495602866E0,-4.661850554E-1,4.544841921E-1,1.631169004E0
1.597921308E1,1.351071390E0,-3.031038719E-1,5.159227873E-1,1.477647515E0
1.598917308E1,1.262255107E0,1.085143822E-1,6.996930277E-1,1.447284927E0
1.599913308E1,1.375434106E0,7.804097468E-1,7.852040251E-1,1.765617091E0
1.600909308E1,1.584694260E0,1.377918003E0,8.208280402E-1,2.254700111E0
1.601905308E1,1.761469768E0,1.680301498E0,6.040254168E-1,2.508193688E0
1.602901308E1,1.826395497E0,1.557582475E0,4.387385175E-2,2.400772499E0
1.603897308E1,1.889438568E0,1.148269778E0,-4.477810903E-1,2.255883306E0
1.604893208E1,2.187846249E0,8.099019331E-1,-6.500719477E-1,2.421818715E0
1.605889208E1,2.850789526E0,9.104138160E-1,-8.369850665E-1,3.107474576E0
1.606885208E1,3.381265010E0,1.335996975E0,-1.100685429E0,3.798598347E0
1.607881208E1,3.626260422E0,1.610972232E0,-1.233673186E0,4.155351455E0
1.608877208E1,3.793717077E0,1.867970808E0,-1.026273617E0,4.351418359E0
1.609873208E1,3.714234998E0,2.050433757E0,-2.471811014E-1,4.249813962E0
1.610869208E1,3.869009334E0,2.200801340E0,2.154922624E-1,4.456365860E0
1.611865108E1,4.517797964E0,2.317324069E0,7.934730113E-2,5.078069050E0
1.612861108E1,4.789603445E0,2.585406042E0,-5.027379008E-1,5.466019663E0
1.613857108E1,4.451016914E0,3.012884284E0,-7.970680256E-1,5.433630528E0
1.614853108E1,3.944241657E0,3.564539845E0,-6.891703784E-1,5.360778149E0
1.615849108E1,3.072662709E0,3.668747753E0,-6.531551114E-1,4.829863124E0
1.616845108E1,1.538347767E0,3.328279588E0,-8.407425604E-1,3.761755830E0
1.617841108E1,4.862425400E-1,2.381632916E0,-1.204861543E0,2.712987005E0
1.618837008E1,-1.789595168E-2,1.244679839E0,-1.965478976E0,2.326511503E0
1.619833008E1,-5.669413153E-1,3.932392859E-1,-2.366986225E0,2.465498607E0
1.620829008E1,-9.632776156E-1,-2.443609893E-2,-1.998295305E0,2.218487100E0
1.621825008E1,-1.273536725E0,3.105508858E-1,-1.525085989E0,2.011025837E0
1.622821008E1,-1.440006955E0,1.683618624E0,-1.220495170E0,2.529387309E0
1.623817008E1,-1.743860148E0,3.646148849E0,-8.195691347E-1,4.123971776E0
1.624813008E1,-2.452034562E0,5.457505161E0,-1.879820629E-1,5.985998107E0
1.625809008E1,-3.803114430E0,6.129964197E0,1.147241253E0,7.304539884E0
1.626804908E1,-4.922237592E0,4.843248140E0,2.287933624E0,7.274621346E0
1.627800908E1,-4.894760941E0,2.138232039E0,2.397268224E0,5.854708862E0
1.628796908E1,-4.262006838E0,-4.509875572E-1,1.814050709E0,4.653909328E0
1.629792908E1,-3.339910577E0,-1.390721067E0,1.393133189E0,3.876845087E0
1.630788900E1,-1.957656864E0,-8.093832850E-1,1.214683184E0,2.441920747E0
1.631784900E1,-5.559934638E-1,3.300583667E-1,1.082668404E0,1.261046442E0
1.632780900E1,3.419013172E-1,1.066603471E0,8.124448872E-1,1.383692946E0
